"Time (s)","Gyroscope x (rad/s)","Gyroscope y (rad/s)","Gyroscope z (rad/s)"
7.537776500E-2,-2.837514579E-1,-5.312849581E-2,1.912093312E-1
7.784380700E-2,-2.869471312E-1,-5.312849581E-2,2.018616647E-1
8.030984900E-2,-2.944037914E-1,-5.206326395E-2,2.050573528E-1
8.277589000E-2,-2.997299433E-1,-4.034570232E-2,2.167749256E-1
8.524193200E-2,-2.997299433E-1,-3.075860441E-2,2.284924835E-1
8.770797400E-2,-3.007951677E-1,-1.797580719E-2,2.423405200E-1
9.017401500E-2,-2.997299433E-1,3.328853287E-3,2.583190203E-1
9.264005700E-2,-2.986647189E-1,2.250304818E-2,2.796236575E-1
9.510609900E-2,-2.944037914E-1,4.593817517E-2,2.966673970E-1
9.757214000E-2,-2.901428342E-1,7.256899774E-2,3.190372884E-1
1.000381820E-1,-2.826862037E-1,9.919982404E-2,3.424724042E-1
1.025042240E-1,-2.741643488E-1,1.332872808E-1,3.627118468E-1
1.049702650E-1,-2.677729428E-1,1.641790420E-1,3.882774413E-1
1.074363070E-1,-2.592510879E-1,1.961360276E-1,4.127778113E-1
1.099023490E-1,-2.485987544E-1,2.248973250E-1,4.340824485E-1
1.123683900E-1,-2.390116602E-1,2.568543255E-1,4.575175941E-1
1.148344320E-1,-2.283593267E-1,2.877460718E-1,4.777570069E-1
1.173004740E-1,-2.166417688E-1,3.238308430E-1,4.948007464E-1
1.197665150E-1,-2.113156021E-1,3.621792197E-1,5.129097104E-1
1.222325570E-1,-2.006632686E-1,3.983971477E-1,5.320838690E-1
1.246985990E-1,-1.921414137E-1,4.303541481E-1,5.480623841E-1
1.271646400E-1,-1.804238409E-1,4.697677493E-1,5.640408993E-1
1.296306820E-1,-1.729672104E-1,5.059856772E-1,5.757584572E-1
1.320967240E-1,-1.729672104E-1,5.422036052E-1,5.864107609E-1
1.345627650E-1,-1.687062830E-1,5.805519819E-1,6.002588272E-1
1.370288070E-1,-1.580539495E-1,6.263570189E-1,6.141068339E-1
1.394948490E-1,-1.516625583E-1,6.785534620E-1,6.236939430E-1
1.419608900E-1,-1.452711523E-1,7.296846509E-1,6.396724582E-1
1.444269320E-1,-1.388797611E-1,7.840114832E-1,6.588466167E-1
1.468929740E-1,-1.335535944E-1,8.383383751E-1,6.737598777E-1
1.493590150E-1,-1.356840581E-1,8.777520061E-1,6.908035874E-1
1.518250570E-1,-1.367492825E-1,9.191629291E-1,7.174344659E-1
1.542910990E-1,-1.431406885E-1,9.468590021E-1,7.355434299E-1
1.567571400E-1,-1.569887102E-1,9.202281833E-1,7.472609878E-1
1.592231820E-1,-1.846847683E-1,8.798824549E-1,7.536523938E-1
1.616892240E-1,-2.134460658E-1,8.734911084E-1,7.643046975E-1
1.641552650E-1,-2.411421239E-1,8.756215572E-1,7.769543529E-1
1.666213070E-1,-2.688381970E-1,8.862738609E-1,7.961285114E-1
1.690873490E-1,-2.922733128E-1,9.010539651E-1,8.195636868E-1
1.715533900E-1,-3.125127256E-1,9.138367772E-1,8.536511064E-1
1.740194320E-1,-3.252955377E-1,9.276847839E-1,8.919994831E-1
1.764854740E-1,-3.348826170E-1,9.415328503E-1,9.324783683E-1
1.789515150E-1,-3.391435742E-1,9.660332203E-1,9.708267450E-1
1.814175570E-1,-3.359478712E-1,9.915987849E-1,1.009175181E0
1.838835990E-1,-3.306216896E-1,1.025686264E0,1.046458244E0
1.863496400E-1,-3.199693561E-1,1.062969446E0,1.079480529E0
1.888156820E-1,-3.125127256E-1,1.097056866E0,1.109307051E0
1.912817240E-1,-3.039908707E-1,1.129013896E0,1.132742167E0
1.937477650E-1,-2.933385372E-1,1.165231824E0,1.148720622E0
1.962138070E-1,-2.858819067E-1,1.197188735E0,1.167894840E0
1.986798490E-1,-2.762948275E-1,1.221689105E0,1.180677652E0
2.011458900E-1,-2.635120153E-1,1.244058967E0,1.192395210E0
2.036119320E-1,-2.485987544E-1,1.263233185E0,1.201982260E0
2.060779740E-1,-2.379464209E-1,1.269624591E0,1.212634683E0
2.085440150E-1,-2.187722325E-1,1.271755099E0,1.224352241E0
2.110100570E-1,-2.017285079E-1,1.270689845E0,1.237135053E0
2.134760990E-1,-1.814890802E-1,1.257907033E0,1.250983000E0
2.159421400E-1,-1.655105799E-1,1.245124221E0,1.256309152E0
2.184081820E-1,-1.505973190E-1,1.237667561E0,1.255244017E0
2.208742240E-1,-1.346188188E-1,1.223819613E0,1.252048254E0
2.233402650E-1,-1.197055578E-1,1.205710649E0,1.245656848E0
2.258063070E-1,-1.069227681E-1,1.189732075E0,1.237135053E0
2.282723490E-1,-9.307473898E-2,1.163101315E0,1.228613138E0
2.307383900E-1,-8.029194176E-2,1.135405302E0,1.221156478E0
2.332044320E-1,-6.750914454E-2,1.108774424E0,1.212634683E0
2.356704740E-1,-5.685681105E-2,1.076817393E0,1.204112768E0
2.381365150E-1,-4.087831825E-2,1.043795228E0,1.194525719E0
2.406025570E-1,-3.129122034E-2,1.013968706E0,1.183873296E0
2.430685990E-1,-1.957365684E-2,9.830769300E-1,1.176416755E0
2.455346400E-1,-7.856093347E-3,9.596418142E-1,1.165764332E0
2.480006820E-1,-1.464695437E-3,9.372718930E-1,1.154046774E0
2.504667240E-1,5.991935730E-3,9.191629291E-1,1.141264081E0
2.529327650E-1,1.238333434E-2,9.085106254E-1,1.131676912E0
2.553988070E-1,1.770949923E-2,9.095758200E-1,1.119959354E0
2.578648490E-1,1.983996481E-2,9.180977345E-1,1.107176542E0
2.603308900E-1,1.983996481E-2,9.287500381E-1,1.091198087E0
2.627969320E-1,2.197043039E-2,9.479242563E-1,1.078415275E0
2.652629740E-1,1.983996481E-2,9.702941179E-1,1.068828225E0
2.677290150E-1,1.877473295E-2,9.937292337E-1,1.059241056E0
2.701950570E-1,1.557903271E-2,1.027816772E0,1.050719261E0
2.726610990E-1,1.770949923E-2,1.065099835E0,1.047523499E0
2.751271400E-1,1.451379992E-2,1.093861103E0,1.050719261E0
2.775931820E-1,1.025286783E-2,1.124752879E0,1.052849650E0
2.800592240E-1,8.122402243E-3,1.155644655E0,1.058175802E0
2.825252650E-1,7.057168987E-3,1.188666940E0,1.064567208E0
2.849913070E-1,8.122402243E-3,1.231276274E0,1.075219631E0
2.874573490E-1,1.731003635E-3,1.268559337E0,1.088002324E0
2.899233900E-1,-3.994623839E-4,1.300516367E0,1.100785136E0
2.923894320E-1,6.657706108E-4,1.331408143E0,1.115698457E0
2.948554740E-1,-2.529928461E-3,1.360169411E0,1.130611658E0
2.973215150E-1,-3.994623839E-4,1.387865424E0,1.146590233E0
2.997875570E-1,-1.464695437E-3,1.405974388E0,1.160438180E0
3.022535990E-1,-3.595161485E-3,1.420887709E0,1.173220992E0
3.047196400E-1,-1.464695437E-3,1.431540012E0,1.180677652E0
3.071856820E-1,1.731003635E-3,1.434735775E0,1.189199567E0
3.096517240E-1,2.796236658E-3,1.431540012E0,1.196656108E0
3.121177650E-1,7.057168987E-3,1.428344369E0,1.203047514E0
3.145838070E-1,1.131810062E-2,1.419822454E0,1.207308531E0
3.170498490E-1,1.770949923E-2,1.405974388E0,1.207308531E0
3.195158900E-1,2.197043039E-2,1.391061187E0,1.199851871E0
3.219819320E-1,2.729659714E-2,1.378278375E0,1.194525719E0
3.244479740E-1,2.836182900E-2,1.364430308E0,1.188134313E0
3.269140150E-1,3.155753016E-2,1.346321344E0,1.173220992E0
3.293800570E-1,3.049229458E-2,1.322886229E0,1.160438180E0
3.318460990E-1,2.942706272E-2,1.298385859E0,1.144459724E0
3.343121400E-1,3.155753016E-2,1.271755099E0,1.125285506E0
3.367781820E-1,2.729659714E-2,1.247254729E0,1.106111288E0
3.392442240E-1,2.516612969E-2,1.218493462E0,1.084806681E0
3.417102650E-1,2.410089783E-2,1.189732075E0,1.066697717E0
3.441763070E-1,2.090519853E-2,1.162036061E0,1.047523499E0
3.466423490E-1,1.664426550E-2,1.137535691E0,1.026218891E0
3.491083900E-1,1.344856713E-2,1.104513526E0,1.005979419E0
3.515744320E-1,1.344856713E-2,1.069360852E0,9.878704548E-1
3.540404740E-1,1.025286783E-2,1.033142924E0,9.697614908E-1
3.565065150E-1,5.991935730E-3,1.000120640E0,9.473916292E-1
3.589725570E-1,2.796236658E-3,9.628375173E-1,9.282174110E-1
3.614385990E-1,-2.529928461E-3,9.298152924E-1,9.111737013E-1
3.639046400E-1,-8.921326138E-3,8.958609700E-1,8.909342885E-1
3.663706820E-1,-1.424749196E-2,8.639039993E-1,8.728253245E-1
3.688367240E-1,-2.170412242E-2,8.372731805E-1,8.536511064E-1
3.713027650E-1,-3.235645220E-2,8.117075562E-1,8.366073966E-1
3.737688070E-1,-4.300878197E-2,7.840114832E-1,8.195636868E-1
3.762348490E-1,-5.366111174E-2,7.637720704E-1,8.025199175E-1
3.787008900E-1,-7.070484012E-2,7.435326576E-1,7.844109535E-1
3.811669320E-1,-8.242240548E-2,7.232932448E-1,7.685656548E-1
3.836329740E-1,-9.840089828E-2,7.073147297E-1,7.483261824E-1
3.860990150E-1,-1.133141592E-1,6.924014688E-1,7.344781756E-1
3.885650570E-1,-1.260969639E-1,6.796186566E-1,7.195649147E-1
3.910310990E-1,-1.442059278E-1,6.679010987E-1,7.025212049E-1
3.934971400E-1,-1.623148769E-1,6.583139896E-1,6.897383928E-1
3.959631820E-1,-1.793586165E-1,6.465964317E-1,6.780208349E-1
3.984292240E-1,-1.942718774E-1,6.370093226E-1,6.631075740E-1
4.008952650E-1,-2.113156021E-1,6.252917647E-1,6.503247619E-1
4.033613070E-1,-2.326202542E-1,6.093133092E-1,6.396724582E-1
4.058273490E-1,-2.454030514E-1,5.975957513E-1,6.300853491E-1
4.082933900E-1,-2.592510879E-1,5.869433880E-1,6.215634942E-1
4.107594320E-1,-2.752295732E-1,5.741605759E-1,6.087806821E-1
4.132254740E-1,-2.816209793E-1,5.667039752E-1,5.725627542E-1
4.156915150E-1,-2.794905007E-1,5.720301270E-1,5.075835586E-1
4.181575570E-1,-2.603163123E-1,5.869433880E-1,4.053211510E-1
4.206235990E-1,-2.315550297E-1,5.975957513E-1,2.700365782E-1
4.230896400E-1,-1.932066381E-1,5.837476850E-1,1.327546686E-1
4.255556820E-1,-1.527277827E-1,5.379426479E-1,2.729659714E-2
4.280217240E-1,-1.218360290E-1,4.644415975E-1,-3.022598661E-2
4.304877650E-1,-9.840089828E-2,3.802881837E-1,-4.726971686E-2
4.329538070E-1,-8.348763734E-2,3.131785095E-1,-2.916075476E-2
4.354198490E-1,-7.283531129E-2,2.664414048E-1,-3.595161485E-3
4.378858900E-1,-5.792204663E-2,2.398105860E-1,3.049229458E-2
4.403519320E-1,-5.153064802E-2,2.195711583E-1,6.031882018E-2
4.428179740E-1,-5.259587988E-2,2.185059190E-1,8.481918275E-2
4.452840150E-1,-5.792204663E-2,2.312887162E-1,9.760197252E-2
4.477500570E-1,-6.431344151E-2,2.547238469E-1,1.050586104E-1
4.502160990E-1,-7.603100687E-2,2.813546658E-1,1.125152409E-1
4.526821400E-1,-9.733566642E-2,3.025261760E-1,1.178414002E-1
4.551481820E-1,-1.260969639E-1,3.121132851E-1,1.231675670E-1
4.576142240E-1,-1.580539495E-1,3.163742125E-1,1.284937263E-1
4.600802650E-1,-1.964023411E-1,3.099828064E-1,1.348851323E-1
4.625463070E-1,-2.411421239E-1,3.046566546E-1,1.338198930E-1
4.650123490E-1,-2.826862037E-1,3.014609516E-1,1.316894293E-1
4.674783900E-1,-3.284912407E-1,3.099828064E-1,1.295589656E-1
4.699444320E-1,-3.689700961E-1,3.227656186E-1,1.210371032E-1
4.724104740E-1,-4.030575454E-1,3.419398069E-1,1.167761683E-1
4.748765150E-1,-4.350145459E-1,3.675054014E-1,1.167761683E-1
4.773425570E-1,-4.648410678E-1,3.920057416E-1,1.189066395E-1
4.798085990E-1,-4.904066622E-1,4.197018147E-1,1.242327988E-1
4.822746400E-1,-5.127765536E-1,4.431369305E-1,1.348851323E-1
4.847406820E-1,-5.287550688E-1,4.665720761E-1,1.466026902E-1
4.872067240E-1,-5.446003675E-1,4.825505614E-1,1.572550237E-1
4.896727650E-1,-5.541874766E-1,4.942681193E-1,1.677742004E-1
4.921388070E-1,-5.616441369E-1,5.049204826E-1,1.784265339E-1
4.946048490E-1,-5.616441369E-1,5.155727863E-1,1.858831644E-1
4.970708900E-1,-5.595136285E-1,5.219641924E-1,1.912093312E-1
4.995369320E-1,-5.531222224E-1,5.272903442E-1,1.997311860E-1
5.020029740E-1,-5.424699187E-1,5.379426479E-1,1.997311860E-1
5.044690150E-1,-5.308855176E-1,5.400731564E-1,1.965354979E-1
5.069350570E-1,-5.138418078E-1,5.411383510E-1,1.986659616E-1
5.094010990E-1,-4.946675897E-1,5.368774533E-1,1.944050342E-1
5.118671400E-1,-4.722976983E-1,5.368774533E-1,1.837527007E-1
5.143331820E-1,-4.499278069E-1,5.379426479E-1,1.762960702E-1
5.167992240E-1,-4.211665094E-1,5.294207931E-1,1.657768935E-1
5.192652650E-1,-3.945356905E-1,5.187684894E-1,1.551245600E-1
5.217313070E-1,-3.647091687E-1,5.038552284E-1,1.423417628E-1
5.241973490E-1,-3.327521682E-1,4.921376705E-1,1.295589656E-1
5.266633900E-1,-3.018604219E-1,4.782896340E-1,1.146457046E-1
5.291294320E-1,-2.688381970E-1,4.687025249E-1,1.018629074E-1
5.315954740E-1,-2.390116602E-1,4.644415975E-1,8.908011019E-2
5.340615150E-1,-2.059894353E-1,4.580501914E-1,7.416684926E-2
5.365275570E-1,-1.719019860E-1,4.463326335E-1,6.564498693E-2
5.389935990E-1,-1.335535944E-1,4.165061116E-1,6.671021879E-2
5.414596400E-1,-7.390054315E-2,3.738967776E-1,6.990591437E-2
5.439256820E-1,-1.318225823E-2,3.238308430E-1,7.629731297E-2
5.463917240E-1,4.966649041E-2,2.792242169E-1,8.801487833E-2
5.488577650E-1,1.113168523E-1,2.376801223E-1,9.866721183E-2
5.513238070E-1,1.667089611E-1,2.099840641E-1,1.093195379E-1
5.537898490E-1,2.082530558E-1,2.025274336E-1,1.189066395E-1
5.562558900E-1,2.316881865E-1,2.067883611E-1,1.210371032E-1
5.587219320E-1,2.402100414E-1,2.195711583E-1,1.199718714E-1
5.611879740E-1,2.359491140E-1,2.387453467E-1,1.125152409E-1
5.636540150E-1,2.189053893E-1,2.515281439E-1,1.061238423E-1
5.661200570E-1,1.986659616E-1,2.547238469E-1,9.973244369E-2
5.685860990E-1,1.773612946E-1,2.515281439E-1,8.588441461E-2
5.710521400E-1,1.528609395E-1,2.451367527E-1,7.097115368E-2
5.735181820E-1,1.347519755E-1,2.291582525E-1,5.073172227E-2
5.759842240E-1,1.198387146E-1,2.174406946E-1,3.581846133E-2
5.784502650E-1,1.070559174E-1,2.121145278E-1,2.303566411E-2
5.809163070E-1,1.027949899E-1,2.067883611E-1,1.131810062E-2
5.833823490E-1,9.746882319E-2,2.014621943E-1,-1.464695437E-3
5.858483900E-1,8.894696087E-2,1.993317306E-1,-1.531272475E-2
5.883144320E-1,8.149032295E-2,2.046578974E-1,-3.022598661E-2
5.907804740E-1,7.523208112E-2,2.067883611E-1,-4.407401755E-2
5.932465150E-1,6.777545065E-2,1.972012669E-1,-6.218297780E-2
5.957125570E-1,6.671021879E-2,1.822880059E-1,-8.242240548E-2
5.981785990E-1,6.671021879E-2,1.652442664E-1,-1.015966013E-1
6.006446400E-1,6.457975507E-2,1.439396143E-1,-1.218360290E-1
6.031106820E-1,6.351451576E-2,1.322220564E-1,-1.399449855E-1
6.055767240E-1,6.457975507E-2,1.279611140E-1,-1.548582464E-1
6.080427650E-1,5.712312087E-2,1.205044836E-1,-1.719019860E-1
6.105088070E-1,5.073172227E-2,1.268958896E-1,-1.878804713E-1
6.129748490E-1,3.901416063E-2,1.354177445E-1,-2.017285079E-1
6.154408900E-1,2.729659714E-2,1.386134475E-1,-2.155765295E-1
6.179069320E-1,1.664426550E-2,1.513962448E-1,-2.315550297E-1
6.203729740E-1,2.796236658E-3,1.609833390E-1,-2.517944574E-1
6.228390150E-1,-8.921326138E-3,1.705704331E-1,-2.688381970E-1
6.253050570E-1,-1.531272475E-2,1.758965999E-1,-2.869471312E-1
6.277710990E-1,-2.916075476E-2,1.769618392E-1,-3.114475012E-1
6.302371400E-1,-4.194355011E-2,1.758965999E-1,-3.327521682E-1
6.327031820E-1,-5.579157919E-2,1.684399694E-1,-3.561872840E-1
6.351692240E-1,-6.537867337E-2,1.609833390E-1,-3.764267266E-1
6.376352650E-1,-7.390054315E-2,1.599181145E-1,-3.924052119E-1
6.401013070E-1,-7.922670245E-2,1.652442664E-1,-4.094489515E-1
6.425673490E-1,-8.135717362E-2,1.652442664E-1,-4.190360308E-1
6.450333900E-1,-8.561810106E-2,1.588528752E-1,-4.286231399E-1
6.474994320E-1,-8.774857223E-2,1.620485783E-1,-4.360797703E-1
6.499654740E-1,-8.561810106E-2,1.705704331E-1,-4.350145459E-1
6.524315150E-1,-8.455286920E-2,1.727008969E-1,-4.382102489E-1
6.548975570E-1,-7.922670245E-2,1.758965999E-1,-4.371449947E-1
6.573635990E-1,-7.070484012E-2,1.929403245E-1,-4.328840673E-1
6.598296400E-1,-6.537867337E-2,1.982664913E-1,-4.328840673E-1
6.622956820E-1,-5.898727849E-2,2.003969699E-1,-4.254274368E-1
6.647617240E-1,-5.685681105E-2,2.078536004E-1,-4.147751033E-1
6.672277650E-1,-4.940018058E-2,2.195711583E-1,-4.073184729E-1
6.696938070E-1,-3.661738336E-2,2.280930281E-1,-3.966661394E-1
6.721598490E-1,-2.809552103E-2,2.419410497E-1,-3.870790601E-1
6.746258900E-1,-1.637795754E-2,2.462019771E-1,-3.817528784E-1
6.770919320E-1,-1.464695437E-3,2.493976802E-1,-3.732310236E-1
6.795579740E-1,8.122402243E-3,2.408758104E-1,-3.689700961E-1
6.820240150E-1,8.122402243E-3,2.142449915E-1,-3.647091687E-1
6.844900570E-1,1.238333434E-2,1.993317306E-1,-3.657743931E-1
6.869560990E-1,1.557903271E-2,1.929403245E-1,-3.668396175E-1
6.894221400E-1,1.983996481E-2,1.982664913E-1,-3.679048419E-1
6.918881820E-1,2.410089783E-2,2.035926580E-1,-3.657743931E-1
6.943542240E-1,3.155753016E-2,2.142449915E-1,-3.647091687E-1
6.968202650E-1,3.581846133E-2,2.334191799E-1,-3.561872840E-1
6.992863070E-1,3.475322574E-2,2.632457018E-1,-3.508611321E-1
7.017523490E-1,1.983996481E-2,2.993304729E-1,-3.423392773E-1
7.042183900E-1,3.861469682E-3,3.142437339E-1,-3.338173926E-1
7.066844320E-1,-8.921326138E-3,3.238308430E-1,-3.199693561E-1
7.091504740E-1,-2.596505545E-2,3.344831765E-1,-3.093170524E-1
7.116165150E-1,-3.555215150E-2,3.376788795E-1,-2.944037914E-1
7.140825570E-1,-3.768261895E-2,3.270265460E-1,-2.858819067E-1
7.165485990E-1,-3.874785081E-2,3.142437339E-1,-2.805557549E-1
7.190146400E-1,-4.087831825E-2,3.121132851E-1,-2.762948275E-1
7.214806820E-1,-3.981308267E-2,3.035914004E-1,-2.773600519E-1
7.239467240E-1,-3.661738336E-2,2.834851444E-1,-2.794905007E-1
7.264127650E-1,-3.235645220E-2,2.579195499E-1,-2.816209793E-1
7.288788070E-1,-2.703028731E-2,2.280930281E-1,-2.912080884E-1
7.313448490E-1,-2.063889056E-2,1.972012669E-1,-3.029256463E-1
7.338108900E-1,-1.744319126E-2,1.748313755E-1,-3.146432042E-1
7.362769320E-1,-2.596505545E-2,1.482005417E-1,-3.263607621E-1
7.387429740E-1,-3.342168778E-2,1.354177445E-1,-3.370130956E-1
7.412090150E-1,-5.046541616E-2,1.258306503E-1,-3.476654291E-1
7.436750570E-1,-6.644391268E-2,1.205044836E-1,-3.497959077E-1
7.461410990E-1,-8.881380409E-2,1.130478531E-1,-3.540568352E-1
7.486071400E-1,-1.079879999E-1,1.045259908E-1,-3.604482114E-1
7.510731820E-1,-1.292926520E-1,1.045259908E-1,-3.647091687E-1
7.535392240E-1,-1.463363916E-1,1.045259908E-1,-3.689700961E-1
7.560052650E-1,-1.697715074E-1,1.023955271E-1,-3.764267266E-1
7.584713070E-1,-1.932066381E-1,8.854749799E-2,-3.870790601E-1
7.609373490E-1,-2.219679356E-1,7.576470077E-2,-3.966661394E-1
7.634033900E-1,-2.549901605E-1,6.298190355E-2,-4.083836973E-1
7.658694320E-1,-2.869471312E-1,4.593817517E-2,-4.222317338E-1
7.683354740E-1,-3.220998347E-1,4.274247587E-2,-4.360797703E-1
7.708015150E-1,-3.561872840E-1,4.274247587E-2,-4.487294257E-1
7.732675570E-1,-3.902747631E-1,4.593817517E-2,-4.593817294E-1
7.757335990E-1,-4.286231399E-1,5.019910634E-2,-4.732297659E-1
7.781996400E-1,-4.605801404E-1,6.191666797E-2,-4.838820994E-1
7.806656820E-1,-4.925371110E-1,8.002562821E-2,-4.945344329E-1
7.831317240E-1,-5.255593657E-1,1.002650559E-1,-5.041215420E-1
7.855977650E-1,-5.552527308E-1,1.247654185E-1,-5.137086511E-1
7.880638070E-1,-5.850792527E-1,1.524614692E-1,-5.232957006E-1
7.905298490E-1,-6.095796227E-1,1.833532304E-1,-5.328828096E-1
7.929958900E-1,-6.287537813E-1,2.078536004E-1,-5.435351729E-1
7.954619320E-1,-6.468627453E-1,2.248973250E-1,-5.573831797E-1
7.979279740E-1,-6.596455574E-1,2.398105860E-1,-5.744268894E-1
8.003940150E-1,-6.734935641E-1,2.589847744E-1,-5.946663618E-1
8.028600570E-1,-6.830806732E-1,2.643109560E-1,-6.095796227E-1
8.053260990E-1,-6.841459274E-1,2.717675865E-1,-6.266233325E-1
8.077921400E-1,-6.905373335E-1,2.707023323E-1,-6.426018476E-1
8.102581820E-1,-6.979939342E-1,2.760285139E-1,-6.575151086E-1
8.127242240E-1,-7.022548914E-1,2.866808474E-1,-6.681674123E-1
8.151902650E-1,-7.086462975E-1,2.929390669E-1,-6.820154190E-1
8.176563070E-1,-7.182333469E-1,3.035914004E-1,-6.905373335E-1
8.201228700E-1,-7.288857102E-1,3.174394369E-1,-6.958634853E-1
8.225902130E-1,-7.416685224E-1,3.312874734E-1,-7.033200860E-1
8.250575570E-1,-7.544512749E-1,3.430050313E-1,-7.161028981E-1
8.275249010E-1,-7.672340870E-1,3.568530679E-1,-7.235595584E-1
8.299922450E-1,-7.757559419E-1,3.728315532E-1,-7.352771163E-1
8.324596400E-1,-7.842777967E-1,3.834838867E-1,-7.459294200E-1
8.349269840E-1,-7.938649058E-1,3.994623721E-1,-7.565817833E-1
8.373943280E-1,-7.959953547E-1,4.314193726E-1,-7.725602388E-1
8.398537550E-1,-7.959953547E-1,4.644415975E-1,-7.938649058E-1
8.423208900E-1,-7.991910577E-1,5.038552284E-1,-8.194305301E-1
8.447880780E-1,-8.013215661E-1,5.517907143E-1,-8.471265435E-1
8.472552130E-1,-8.055824637E-1,5.975957513E-1,-8.833444715E-1
8.497224010E-1,-8.151695728E-1,6.380745769E-1,-9.248885512E-1
8.521895360E-1,-8.215609789E-1,6.806839108E-1,-9.579107761E-1
8.546566720E-1,-8.290175796E-1,7.286193967E-1,-9.792154431E-1
8.571238590E-1,-8.354089856E-1,7.818810344E-1,-9.994548559E-1
8.595854740E-1,-8.396699429E-1,8.564473391E-1,-1.017563820E0
8.620524530E-1,-8.449960947E-1,9.394024014E-1,-1.032477140E0
8.645194840E-1,-8.481917977E-1,1.034208059E0,-1.052583337E0
8.669865150E-1,-8.513875008E-1,1.127948642E0,-1.073888063E0
8.694534950E-1,-8.503222466E-1,1.221689105E0,-1.096257925E0
8.719205260E-1,-8.481917977E-1,1.311168671E0,-1.116497397E0
8.743875570E-1,-8.460613489E-1,1.392126441E0,-1.147389174E0
8.768545880E-1,-8.386046886E-1,1.462431788E0,-1.175085187E0
8.793232340E-1,-8.332785368E-1,1.516625524E0,-1.202781200E0
8.817902650E-1,-8.290175796E-1,1.568821907E0,-1.236868739E0
8.842573490E-1,-8.279523849E-1,1.607170343E0,-1.267760396E0
8.867243800E-1,-8.247566819E-1,1.635931611E0,-1.292260766E0
8.891914630E-1,-8.290175796E-1,1.665758133E0,-1.315695882E0
8.916584950E-1,-8.364742398E-1,1.694519401E0,-1.337000608E0
8.941255780E-1,-8.481917977E-1,1.719019771E0,-1.357240081E0
8.965926090E-1,-8.641703129E-1,1.736063480E0,-1.374283791E0
8.990581300E-1,-8.833444715E-1,1.756302953E0,-1.388131738E0
9.015251090E-1,-9.089100957E-1,1.774411917E0,-1.401979804E0
9.039921400E-1,-9.408670664E-1,1.792520881E0,-1.416893125E0
9.064591720E-1,-9.738892913E-1,1.806368947E0,-1.431806326E0
9.089261510E-1,-1.013302922E0,1.817021251E0,-1.446719646E0
9.113931820E-1,-1.060173154E0,1.829804063E0,-1.458437204E0
9.138602130E-1,-1.109173894E0,1.831934452E0,-1.469089508E0
9.163272450E-1,-1.160171866E0,1.841521621E0,-1.480807066E0
9.187944320E-1,-1.204911709E0,1.876674294E0,-1.490394115E0
9.212614110E-1,-1.227281570E0,1.990654230E0,-1.512764096E0
9.237284420E-1,-1.223020673E0,2.154567003E0,-1.551112413E0
9.261954740E-1,-1.213433623E0,2.298373461E0,-1.596917510E0
9.286625050E-1,-1.200650811E0,2.443245173E0,-1.643787742E0
9.311295360E-1,-1.181476593E0,2.599834442E0,-1.684133410E0
9.335965670E-1,-1.153780460E0,2.759486198E0,-1.712894678E0
9.360635470E-1,-1.123021960E0,2.921401501E0,-1.728873253E0
9.385315150E-1,-1.083608270E0,3.090773582E0,-1.742721200E0
9.409985470E-1,-1.039933681E0,3.244167089E0,-1.754438758E0
9.434655780E-1,-1.000520110E0,3.378253460E0,-1.758699775E0
9.459326090E-1,-9.611064792E-1,3.484776735E0,-1.770417333E0
9.483996920E-1,-9.195623994E-1,3.579582453E0,-1.787461042E0
9.508667240E-1,-8.833444715E-1,3.663735867E0,-1.805570006E0
9.533337550E-1,-8.449960947E-1,3.736171722E0,-1.829005122E0
9.558007860E-1,-8.077129126E-1,3.801150799E0,-1.852440238E0
9.582652130E-1,-7.800168991E-1,3.861869097E0,-1.880136251E0
9.607321920E-1,-7.523208261E-1,3.915130854E0,-1.906767130E0
9.631991720E-1,-7.256900072E-1,3.963998318E0,-1.932332754E0
9.656661510E-1,-7.075810432E-1,4.010868549E0,-1.956833124E0
9.681331300E-1,-6.852111220E-1,4.050282478E0,-1.981333375E0
9.706001090E-1,-6.628412604E-1,4.076912880E0,-2.006899118E0
9.730671400E-1,-6.426018476E-1,4.095022202E0,-2.034595013E0
9.755341200E-1,-6.234276295E-1,4.111000538E0,-2.063356400E0
9.779975570E-1,-6.031882167E-1,4.121653080E0,-2.091052532E0
9.804644840E-1,-5.829487443E-1,4.122718334E0,-2.117683172E0
9.829313590E-1,-5.669702888E-1,4.120587826E0,-2.146444559E0
9.853982340E-1,-5.499265194E-1,4.121653080E0,-2.172010183E0
9.878651610E-1,-5.328828096E-1,4.116326809E0,-2.193314791E0
9.903320360E-1,-5.170374513E-1,4.103543758E0,-2.214619398E0
9.927989110E-1,-5.053198934E-1,4.074782848E0,-2.234858990E0
9.952658380E-1,-4.925371110E-1,4.037499428E0,-2.255098343E0
9.977352130E-1,-4.808195531E-1,3.995955467E0,-2.273074150E0
1.000202192E0,-4.616453648E-1,3.919391870E0,-2.302900553E0
1.002669120E0,-4.318188429E-1,3.850151539E0,-2.335922956E0
1.005136099E0,-4.062532485E-1,3.835238457E0,-2.345510006E0
1.007603078E0,-3.870790601E-1,3.824585915E0,-2.345510006E0
1.010070005E0,-3.721657991E-1,3.801150799E0,-2.340183735E0
1.012536984E0,-3.540568352E-1,3.780911446E0,-2.330596685E0
1.015003911E0,-3.306216896E-1,3.754280567E0,-2.325270653E0
1.017471620E0,-3.103822768E-1,3.718062639E0,-2.317813873E0
1.019938599E0,-2.826862037E-1,3.672257662E0,-2.309292078E0
1.022405578E0,-2.507292330E-1,3.622191668E0,-2.299705029E0
1.024872557E0,-2.113156021E-1,3.571060658E0,-2.276269913E0
1.027339536E0,-1.644453406E-1,3.525255442E0,-2.249772072E0
1.029806515E0,-1.207707971E-1,3.476254702E0,-2.214619398E0
1.032273495E0,-7.283531129E-2,3.422993183E0,-2.173075438E0
1.034740474E0,-1.850842312E-2,3.385710001E0,-2.127270460E0
1.037206515E0,3.581846133E-2,3.348426819E0,-2.076139212E0
1.039672557E0,8.362079412E-2,3.315537691E0,-2.022877455E0
1.042138599E0,1.304910481E-1,3.287841797E0,-1.976007223E0
1.044604640E0,1.720351279E-1,3.250558615E0,-1.927006483E0
1.047070682E0,2.189053893E-1,3.204753637E0,-1.875875354E0
1.049536724E0,2.615146935E-1,3.158948421E0,-1.825809360E0
1.052002765E0,3.009283245E-1,3.106752157E0,-1.777873874E0
1.054468807E0,3.382114768E-1,3.051359892E0,-1.727807999E0
1.056939692E0,3.701684773E-1,2.993837357E0,-1.678807259E0
1.059406776E0,4.031907022E-1,2.942706347E0,-1.636331081E0
1.061873911E0,4.287562966E-1,2.896901131E0,-1.591591239E0
1.064340995E0,4.500609636E-1,2.850030899E0,-1.550047159E0
1.066808130E0,4.681699276E-1,2.797834635E0,-1.508503079E0
1.069275213E0,4.852136374E-1,2.747768641E0,-1.472285151E0
1.071742349E0,5.022573471E-1,2.691444397E0,-1.438197732E0
1.074209432E0,5.193011165E-1,2.638182640E0,-1.405175567E0
1.076675786E0,5.331491232E-1,2.576399326E0,-1.373218536E0
1.079142870E0,5.459319353E-1,2.513550520E0,-1.345522404E0
1.081609953E0,5.576494932E-1,2.451766968E0,-1.317826390E0
1.084077036E0,5.704323053E-1,2.385722399E0,-1.296521783E0
1.086544120E0,5.800193548E-1,2.313286781E0,-1.276282310E0
1.089011203E0,5.864107609E-1,2.242981195E0,-1.253912449E0
1.091478286E0,5.917369723E-1,2.167349815E0,-1.231542587E0
1.093945370E0,5.970631242E-1,2.090786219E0,-1.211303115E0
1.096407817E0,6.013240218E-1,2.008763075E0,-1.194259405E0
1.098874797E0,6.002588272E-1,1.928870678E0,-1.175085187E0
1.101341776E0,5.970631242E-1,1.844717264E0,-1.158041477E0
1.103808755E0,5.896064639E-1,1.764824867E0,-1.143128157E0
1.106275734E0,5.789541602E-1,1.689193249E0,-1.129280210E0
1.108742713E0,5.683017969E-1,1.612496495E0,-1.109040737E0
1.111209692E0,5.501928329E-1,1.546452045E0,-1.089866519E0
1.113676672E0,5.342143774E-1,1.486932158E0,-1.071757555E0
1.116146724E0,5.182358623E-1,1.429409623E0,-1.050452948E0
1.118613755E0,4.990616739E-1,1.380408883E0,-1.028216124E0
1.121080786E0,4.841484129E-1,1.332473397E0,-1.003715873E0
1.123547870E0,4.703003764E-1,1.288798809E0,-9.813459516E-1
1.126014901E0,4.575175941E-1,1.251515627E0,-9.589760303E-1
1.128481984E0,4.415390790E-1,1.205710649E0,-9.344756603E-1
1.130949015E0,4.330172241E-1,1.158840418E0,-9.121057987E-1
1.133416047E0,4.234301150E-1,1.109839678E0,-8.918663263E-1
1.135879640E0,4.170387387E-1,1.061904192E0,-8.726921678E-1
1.138346620E0,4.127778113E-1,1.008642554E0,-8.535179496E-1
1.140813599E0,4.085168540E-1,9.553808570E-1,-8.364742398E-1
1.143280526E0,4.095821083E-1,9.053149223E-1,-8.215609789E-1
1.145747505E0,4.063864052E-1,8.521864414E-1,-8.087781668E-1
1.148214484E0,4.042559266E-1,8.042509556E-1,-7.981258631E-1
1.150681463E0,4.021254778E-1,7.573806643E-1,-7.864083052E-1
1.153148390E0,3.946688473E-1,7.169018388E-1,-7.821473479E-1
1.155621099E0,3.904078901E-1,6.742925048E-1,-7.757559419E-1
1.158088182E0,3.861469626E-1,6.370093226E-1,-7.746906877E-1
1.160555317E0,3.850817382E-1,6.039870977E-1,-7.736254930E-1
1.163022401E0,3.818860352E-1,5.688344240E-1,-7.757559419E-1
1.165489536E0,3.808208108E-1,5.411383510E-1,-7.810820937E-1
1.167956567E0,3.818860352E-1,5.219641924E-1,-7.874734998E-1
1.170423703E0,3.829512596E-1,5.049204826E-1,-7.938649058E-1
1.172890838E0,3.872122169E-1,4.921376705E-1,-7.981258631E-1
1.175351151E0,3.936035931E-1,4.878767133E-1,-8.034520149E-1
1.177818130E0,3.999949992E-1,4.868114889E-1,-8.066477180E-1
1.180285057E0,4.085168540E-1,4.878767133E-1,-8.098434210E-1
1.182751984E0,4.191691875E-1,4.932028949E-1,-8.077129126E-1
1.185218911E0,4.298215210E-1,5.006595254E-1,-8.013215661E-1
1.187685890E0,4.458000064E-1,5.038552284E-1,-7.981258631E-1
1.190152765E0,4.617785215E-1,5.059856772E-1,-7.917344570E-1
1.192619745E0,4.809527099E-1,5.049204826E-1,-7.778863907E-1
1.195085786E0,4.979964495E-1,4.985290468E-1,-7.661688328E-1
1.197551828E0,5.161054134E-1,4.878767133E-1,-7.512555718E-1
1.200017870E0,5.310186744E-1,4.750939310E-1,-7.384728193E-1
1.202483911E0,5.480623841E-1,4.591154456E-1,-7.256900072E-1
1.204949953E0,5.587147474E-1,4.378107786E-1,-7.043853402E-1
1.207415995E0,5.661713481E-1,4.228975177E-1,-6.852111220E-1
1.209882036E0,5.683017969E-1,4.058537781E-1,-6.713631153E-1
1.212348078E0,5.608451962E-1,3.909405172E-1,-6.532541513E-1
1.214814120E0,5.523233414E-1,3.792229593E-1,-6.308842301E-1
1.217277088E0,5.395405293E-1,3.717663288E-1,-6.095796227E-1
1.219743859E0,5.256925225E-1,3.632444739E-1,-5.904054046E-1
1.222210630E0,5.086487532E-1,3.536573648E-1,-5.722964406E-1
1.224677453E0,4.916050434E-1,3.366136253E-1,-5.573831797E-1
1.227144224E0,4.756265581E-1,3.174394369E-1,-5.424699187E-1
1.229610995E0,4.575175941E-1,3.035914004E-1,-5.318176150E-1
1.232077765E0,4.415390790E-1,2.781589627E-1,-5.200999975E-1
1.234544588E0,4.191691875E-1,2.515281439E-1,-5.137086511E-1
1.237035161E0,3.989297748E-1,2.238320857E-1,-5.073172450E-1
1.239502505E0,3.776251078E-1,1.982664913E-1,-5.030562878E-1
1.241969901E0,3.552552164E-1,1.695052087E-1,-5.009258389E-1
1.244437297E0,3.328853250E-1,1.322220564E-1,-4.987953603E-1
1.246904692E0,3.094501793E-1,8.322133124E-2,-5.041215420E-1
1.249372036E0,2.860150635E-1,3.741630912E-2,-5.115781426E-1
1.251839432E0,2.561885417E-1,-9.453942999E-3,-5.222305059E-1
1.254306828E0,2.380795777E-1,-5.312849581E-2,-5.360785127E-1
1.256772870E0,2.199706137E-1,-9.467258304E-2,-5.446003675E-1
1.259238911E0,2.007964253E-1,-1.415428370E-1,-5.531222224E-1
1.261704953E0,1.848179251E-1,-1.905435622E-1,-5.659050345E-1
1.264170995E0,1.667089611E-1,-2.374138087E-1,-5.776225924E-1
1.266637036E0,1.517957002E-1,-2.821536064E-1,-5.818835497E-1
1.269103078E0,1.390129030E-1,-3.278254569E-1,-5.872097015E-1
1.271569120E0,1.294258088E-1,-3.608476818E-1,-5.850792527E-1
1.274035161E0,1.209039465E-1,-4.002613127E-1,-5.808182955E-1
1.276501203E0,1.070559174E-1,-4.492620230E-1,-5.733616948E-1
1.278967245E0,9.427312016E-2,-4.918713570E-1,-5.616441369E-1
1.281433286E0,7.829462737E-2,-5.259587765E-1,-5.435351729E-1
1.283899328E0,6.777545065E-2,-5.493939519E-1,-5.190348029E-1
1.286365370E0,5.925358832E-2,-5.770899653E-1,-4.913387299E-1
1.288811828E0,5.179695413E-2,-6.058512926E-1,-4.636426866E-1
1.291278495E0,4.114462435E-2,-6.303516626E-1,-4.360797703E-1
1.293745161E0,3.049229458E-2,-6.527215242E-1,-4.073184729E-1
1.296217817E0,1.983996481E-2,-6.729609370E-1,-3.806876540E-1
1.298684640E0,9.187635034E-3,-6.846785545E-1,-3.508611321E-1
1.301151463E0,-4.660394508E-3,-6.900047064E-1,-3.231650591E-1
1.303618286E0,-1.957365684E-2,-6.921351552E-1,-2.975994647E-1
1.306085057E0,-3.661738336E-2,-6.900047064E-1,-2.752295732E-1
1.308551880E0,-5.472634733E-2,-6.889394522E-1,-2.528596818E-1
1.311018703E0,-7.922670245E-2,-6.793523431E-1,-2.358159572E-1
1.313485526E0,-9.840089828E-2,-6.687000394E-1,-2.230331600E-1
1.315962349E0,-1.229012609E-1,-6.548519731E-1,-2.123808414E-1
1.318429380E0,-1.484668553E-1,-6.484606266E-1,-2.038589716E-1
1.320896463E0,-1.750976741E-1,-6.388735175E-1,-1.974675655E-1
1.323363547E0,-1.995980442E-1,-6.292864084E-1,-2.006632686E-1
1.325830578E0,-2.294245660E-1,-6.175688505E-1,-2.038589716E-1
1.328297661E0,-2.592510879E-1,-6.069164872E-1,-2.102503628E-1
1.330764745E0,-2.890776098E-1,-5.962641835E-1,-2.230331600E-1
1.333231776E0,-3.231650591E-1,-5.770899653E-1,-2.358159572E-1
1.335698859E0,-3.593829870E-1,-5.568505526E-1,-2.517944574E-1
1.338165890E0,-3.966661394E-1,-5.419372916E-1,-2.709686458E-1
1.340632974E0,-4.318188429E-1,-5.238283277E-1,-2.922733128E-1
1.343100057E0,-4.744281471E-1,-4.993279874E-1,-3.199693561E-1
1.345567088E0,-5.127765536E-1,-4.812190235E-1,-3.508611321E-1
1.348034120E0,-5.531222224E-1,-4.620448351E-1,-3.838833570E-1
1.350501255E0,-5.914706588E-1,-4.460663199E-1,-4.232969582E-1
1.352968286E0,-6.255580783E-1,-4.343487620E-1,-4.647079110E-1
1.355432817E0,-6.521888971E-1,-4.236964285E-1,-5.083824396E-1
1.357899797E0,-6.756240726E-1,-4.141093493E-1,-5.552527308E-1
1.360366776E0,-6.937330365E-1,-4.151745737E-1,-5.989272594E-1
1.362833807E0,-7.097114921E-1,-4.194355011E-1,-6.415365934E-1
1.365300786E0,-7.182333469E-1,-4.205007255E-1,-6.841459274E-1
1.367767817E0,-7.161028981E-1,-4.151745737E-1,-7.192986012E-1
1.370234797E0,-7.118419409E-1,-4.109136462E-1,-7.523208261E-1
1.372701828E0,-7.022548914E-1,-3.981308341E-1,-7.768211961E-1
1.375169067E0,-6.884068251E-1,-3.789566457E-1,-7.970606089E-1
1.377636047E0,-6.660369635E-1,-3.629781604E-1,-8.119738698E-1
1.380103078E0,-6.383408904E-1,-3.395430148E-1,-8.194305301E-1
1.382570057E0,-6.042534113E-1,-3.119801283E-1,-8.194305301E-1
1.385037088E0,-5.701659918E-1,-2.885449827E-1,-8.151695728E-1
1.387504067E0,-5.276898146E-1,-2.683055699E-1,-8.055824637E-1
1.389971099E0,-4.818847775E-1,-2.427399755E-1,-7.896040082E-1
1.392438078E0,-4.350145459E-1,-2.139786780E-1,-7.682993412E-1
1.394902974E0,-3.892095089E-1,-1.894783229E-1,-7.395380139E-1
1.397369953E0,-3.423392773E-1,-1.681736708E-1,-7.107767463E-1
1.399836880E0,-2.954690158E-1,-1.436733007E-1,-6.798849702E-1
1.402303859E0,-2.517944574E-1,-1.234338731E-1,-6.479279995E-1
1.404770838E0,-2.102503628E-1,-1.042596847E-1,-6.127753258E-1
1.407237765E0,-1.697715074E-1,-8.508548886E-2,-5.776225924E-1
1.409704745E0,-1.282274276E-1,-6.165036187E-2,-5.488613248E-1
1.412171672E0,-9.413997084E-2,-4.673709720E-2,-5.200999975E-1
1.414655213E0,-6.537867337E-2,-3.501953557E-2,-4.924039543E-1
1.417122557E0,-3.981308267E-2,-2.436720580E-2,-4.700340629E-1
1.419589953E0,-1.637795754E-2,-1.264964230E-2,-4.476641715E-1
1.422057297E0,-2.529928461E-3,-8.388710208E-3,-4.318188429E-1
1.424524692E0,8.122402243E-3,-3.062544856E-3,-4.211665094E-1
1.426992036E0,1.238333434E-2,4.394086078E-3,-4.137098789E-1
1.429459432E0,7.057168987E-3,6.524552125E-3,-4.115794003E-1
1.431926776E0,-3.595161485E-3,1.078548469E-2,-4.115794003E-1
1.434392817E0,-1.957365684E-2,1.398118306E-2,-4.147751033E-1
1.436839067E0,-4.194355011E-2,1.717688330E-2,-4.232969582E-1
1.439305890E0,-7.709623873E-2,1.078548469E-2,-4.350145459E-1
1.441772713E0,-1.133141592E-1,1.331541280E-4,-4.572512805E-1
1.444239536E0,-1.569887102E-1,-1.264964230E-2,-4.806863964E-1
1.446706359E0,-1.995980442E-1,-2.543243766E-2,-5.115781426E-1
1.449173182E0,-2.432725877E-1,-3.928046674E-2,-5.382089615E-1
1.451640005E0,-2.901428342E-1,-5.738943070E-2,-5.744268894E-1
1.454102870E0,-3.327521682E-1,-7.123745978E-2,-6.085143685E-1
1.456569588E0,-3.700353205E-1,-7.975932211E-2,-6.372756362E-1
1.459036307E0,-4.030575454E-1,-8.508548886E-2,-6.660369635E-1
1.461503026E0,-4.360797703E-1,-8.295502514E-2,-6.894720793E-1
1.463969745E0,-4.605801404E-1,-7.869409025E-2,-7.129071951E-1
1.466436463E0,-4.722976983E-1,-6.804175675E-2,-7.256900072E-1
1.468903182E0,-4.829500318E-1,-5.099803209E-2,-7.363423109E-1
1.471369901E0,-4.861457348E-1,-3.395430371E-2,-7.459294200E-1
1.473840682E0,-4.850804806E-1,-4.127778113E-3,-7.501903772E-1
1.476307505E0,-4.765586257E-1,3.102491237E-2,-7.459294200E-1
1.478774328E0,-4.616453648E-1,6.511236727E-2,-7.384728193E-1
1.481241151E0,-4.477973282E-1,1.023955271E-1,-7.256900072E-1
1.483707974E0,-4.307536185E-1,1.396786869E-1,-7.107767463E-1
1.486174797E0,-4.073184729E-1,1.769618392E-1,-6.926677823E-1
1.488641620E0,-3.870790601E-1,2.142449915E-1,-6.724283695E-1
1.491108442E0,-3.689700961E-1,2.515281439E-1,-6.511237025E-1
1.493576047E0,-3.476654291E-1,2.824199200E-1,-6.276885867E-1
1.496042870E0,-3.274259865E-1,3.217003644E-1,-6.010577083E-1
1.498509745E0,-3.157084286E-1,3.589835167E-1,-5.754921436E-1
1.500976567E0,-3.050560951E-1,3.930709958E-1,-5.509917736E-1
1.503443442E0,-2.933385372E-1,4.218322635E-1,-5.296871066E-1
1.505910265E0,-2.826862037E-1,4.442021847E-1,-5.083824396E-1
1.508377088E0,-2.784252763E-1,4.548544884E-1,-4.924039543E-1
1.510843963E0,-2.794905007E-1,4.591154456E-1,-4.774906933E-1
1.513310890E0,-2.794905007E-1,4.548544884E-1,-4.700340629E-1
1.515777713E0,-2.784252763E-1,4.399412274E-1,-4.647079110E-1
1.518244588E0,-2.826862037E-1,4.218322635E-1,-4.604469836E-1
1.520711411E0,-2.922733128E-1,4.037233293E-1,-4.593817294E-1
1.523178286E0,-3.050560951E-1,3.781577349E-1,-4.561860561E-1
1.525645109E0,-3.210346103E-1,3.483312130E-1,-4.497946501E-1
1.528111984E0,-3.391435742E-1,3.217003644E-1,-4.434032440E-1
1.530578807E0,-3.572525382E-1,2.866808474E-1,-4.392754734E-1
1.533054067E0,-3.785571754E-1,2.504629195E-1,-4.318188429E-1
1.535521099E0,-3.987966180E-1,2.206363827E-1,-4.211665094E-1
1.537988182E0,-4.201012850E-1,1.865489334E-1,-4.115794003E-1
1.540455213E0,-4.392754734E-1,1.524614692E-1,-3.998618424E-1
1.542922297E0,-4.573844373E-1,1.258306503E-1,-3.881442845E-1
1.545389328E0,-4.712324440E-1,1.045259908E-1,-3.732310236E-1
1.547856359E0,-4.861457348E-1,7.789516449E-2,-3.583177626E-1
1.550323442E0,-4.904066622E-1,5.765573680E-2,-3.466002047E-1
1.552781932E0,-4.978632927E-1,4.167724028E-2,-3.338173926E-1
1.555248755E0,-4.978632927E-1,2.995967865E-2,-3.220998347E-1
1.557715630E0,-4.946675897E-1,1.930734888E-2,-3.125127256E-1
1.560182453E0,-4.914718866E-1,1.185071748E-2,-3.007951677E-1
1.562649276E0,-4.861457348E-1,1.185071748E-2,-2.954690158E-1
1.565116151E0,-4.829500318E-1,1.504641678E-2,-2.880123854E-1
1.567582974E0,-4.776238501E-1,1.398118306E-2,-2.826862037E-1
1.570049797E0,-4.722976983E-1,1.398118306E-2,-2.816209793E-1
1.572519328E0,-4.605801404E-1,1.398118306E-2,-2.794905007E-1
1.574986255E0,-4.499278069E-1,1.611164957E-2,-2.826862037E-1
1.577453182E0,-4.371449947E-1,9.720250964E-3,-2.848166823E-1
1.579920057E0,-4.201012850E-1,4.394086078E-3,-2.880123854E-1
1.582386984E0,-4.051880240E-1,1.331541280E-4,-2.954690158E-1
1.584853859E0,-3.849485815E-1,-6.258244161E-3,-3.029256463E-1
1.587320786E0,-3.679048419E-1,-1.051917579E-2,-3.093170524E-1
1.589787713E0,-3.519263566E-1,-1.051917579E-2,-3.103822768E-1
1.592253234E0,-3.359478712E-1,-8.388710208E-3,-3.114475012E-1
1.594720109E0,-3.167736828E-1,-3.062544856E-3,-3.125127256E-1
1.597186984E0,-2.975994647E-1,3.328853287E-3,-3.125127256E-1
1.599653859E0,-2.762948275E-1,1.185071748E-2,-3.114475012E-1
1.602120734E0,-2.560553849E-1,2.250304818E-2,-3.050560951E-1
1.604587609E0,-2.379464209E-1,3.422060981E-2,-3.007951677E-1
1.607054484E0,-2.177069932E-1,4.487293959E-2,-2.922733128E-1
1.609521359E0,-1.995980442E-1,5.232957378E-2,-2.816209793E-1
1.611988807E0,-1.772281379E-1,5.659050494E-2,-2.688381970E-1
1.614455682E0,-1.569887102E-1,5.659050494E-2,-2.560553849E-1
1.616922609E0,-1.367492825E-1,5.659050494E-2,-2.400768995E-1
1.619389484E0,-1.175750941E-1,5.019910634E-2,-2.251636237E-1
1.621856359E0,-1.005313694E-1,4.167724028E-2,-2.091851383E-1
1.624323286E0,-8.561810106E-2,2.889444493E-2,-1.932066381E-1
1.626790161E0,-6.644391268E-2,1.824211515E-2,-1.793586165E-1
1.629257036E0,-5.472634733E-2,9.720250964E-3,-1.655105799E-1
1.631722765E0,-4.726971686E-2,-9.453942999E-3,-1.527277827E-1
1.634189640E0,-3.555215150E-2,-2.543243766E-2,-1.399449855E-1
1.636656463E0,-3.342168778E-2,-4.567186534E-2,-1.303578913E-1
1.639123338E0,-3.448691964E-2,-6.697652489E-2,-1.229012609E-1
1.641590213E0,-3.661738336E-2,-8.082455397E-2,-1.197055578E-1
1.644057088E0,-4.300878197E-2,-9.254211932E-2,-1.111836955E-1
1.646523911E0,-5.366111174E-2,-1.074553803E-1,-1.058575287E-1
1.648990786E0,-6.431344151E-2,-1.181077138E-1,-1.037270650E-1
1.651455682E0,-7.816147059E-2,-1.276948154E-1,-9.840089828E-2
1.653922505E0,-9.413997084E-2,-1.340862066E-1,-9.627043456E-2
1.656389276E0,-1.111836955E-1,-1.383471340E-1,-9.627043456E-2
1.658856099E0,-1.292926520E-1,-1.362166703E-1,-9.840089828E-2
1.661322922E0,-1.495320797E-1,-1.298252791E-1,-1.005313694E-1
1.663789745E0,-1.687062830E-1,-1.127815470E-1,-1.026618332E-1
1.666256515E0,-1.910761744E-1,-9.147688746E-2,-1.079879999E-1
1.668723338E0,-2.123808414E-1,-6.910699606E-2,-1.165098622E-1
1.671193286E0,-2.304897904E-1,-4.567186534E-2,-1.250317246E-1
1.673660161E0,-2.507292330E-1,-2.010627277E-2,-1.335535944E-1
1.676127088E0,-2.635120153E-1,-9.320789250E-4,-1.463363916E-1
1.678593911E0,-2.741643488E-1,2.356828004E-2,-1.580539495E-1
1.681060838E0,-2.762948275E-1,4.593817517E-2,-1.708367467E-1
1.683527713E0,-2.773600519E-1,6.404713541E-2,-1.772281379E-1
1.685994640E0,-2.741643488E-1,7.682993263E-2,-1.814890802E-1
1.688461463E0,-2.656424940E-1,8.215609938E-2,-1.846847683E-1
1.690928182E0,-2.507292330E-1,9.280842543E-2,-1.825543046E-1
1.693395057E0,-2.379464209E-1,1.023955271E-1,-1.782933772E-1
1.695861932E0,-2.177069932E-1,1.055912226E-1,-1.719019860E-1
1.698328807E0,-1.974675655E-1,1.141130850E-1,-1.676410437E-1
1.700795734E0,-1.761629134E-1,1.162435561E-1,-1.601844132E-1
1.703262609E0,-1.527277827E-1,1.130478531E-1,-1.495320797E-1
1.705729484E0,-1.250317246E-1,1.119826213E-1,-1.367492825E-1
1.708196307E0,-1.015966013E-1,1.151783243E-1,-1.250317246E-1
1.710648703E0,-7.709623873E-2,1.119826213E-1,-1.122489274E-1
1.713115213E0,-4.940018058E-2,1.066564545E-1,-9.627043456E-2
1.715581724E0,-2.063889056E-2,9.706936032E-2,-7.922670245E-2
1.718048286E0,4.926702939E-3,8.428656310E-2,-6.324820966E-2
1.720514797E0,3.688369319E-2,6.724283099E-2,-4.726971686E-2
1.722981307E0,6.138405204E-2,4.593817517E-2,-3.129122034E-2
1.725447817E0,8.894696087E-2,2.889444493E-2,-1.211702544E-2
1.727914328E0,1.155777797E-1,1.198387123E-3,2.796236658E-3
1.730383859E0,1.432738453E-1,-2.862813696E-2,1.557903271E-2
1.732850474E0,1.624480337E-1,-5.419373140E-2,2.942706272E-2
1.735317088E0,1.784265339E-1,-8.188978583E-2,3.688369319E-2
1.737783651E0,1.976007223E-1,-1.095858440E-1,4.753602296E-2
1.740250265E0,2.093182951E-1,-1.351514459E-1,5.712312087E-2
1.742716828E0,2.199706137E-1,-1.639127284E-1,6.777545065E-2
1.745183442E0,2.252967805E-1,-1.873478591E-1,7.097115368E-2
1.747650057E0,2.252967805E-1,-2.171743810E-1,7.949301600E-2
1.750119797E0,2.274272442E-1,-2.501966059E-1,8.694964647E-2
1.752586463E0,2.306229472E-1,-2.810883522E-1,9.440627694E-2
1.755053130E0,2.263620198E-1,-3.151758313E-1,1.007976755E-1
1.757519797E0,2.231663167E-1,-3.512606025E-1,1.061238423E-1
1.759986463E0,2.221010923E-1,-3.885437548E-1,1.114500016E-1
1.762453130E0,2.178401500E-1,-4.236964285E-1,1.167761683E-1
1.764919797E0,2.093182951E-1,-4.545882046E-1,1.178414002E-1
1.767386515E0,1.976007223E-1,-4.758928418E-1,1.252980381E-1
1.769855422E0,1.826874614E-1,-4.854799509E-1,1.274285018E-1
1.772322140E0,1.741656065E-1,-4.918713570E-1,1.306242049E-1
1.774788859E0,1.592523307E-1,-4.908061028E-1,1.284937263E-1
1.777255578E0,1.432738453E-1,-4.769580960E-1,1.252980381E-1
1.779722349E0,1.294258088E-1,-4.631100595E-1,1.231675670E-1
1.782189067E0,1.187734827E-1,-4.471315742E-1,1.167761683E-1
1.784655786E0,1.049254537E-1,-4.215659797E-1,1.125152409E-1
1.787122505E0,9.427312016E-2,-3.991960883E-1,1.071890742E-1
1.789603703E0,8.894696087E-2,-3.800218701E-1,9.973244369E-2
1.792070786E0,8.255556226E-2,-3.576519787E-1,9.227581322E-2
1.794537870E0,7.935985923E-2,-3.267602324E-1,8.375394344E-2
1.797004953E0,7.523208112E-2,-3.034582436E-1,7.310161740E-2
1.799472036E0,7.203638554E-2,-2.725664973E-1,6.457975507E-2
1.801939172E0,6.884068251E-2,-2.470009029E-1,5.605788901E-2
1.804406255E0,6.777545065E-2,-2.182396203E-1,4.327509180E-2
1.806873286E0,6.244928762E-2,-1.852173954E-1,3.049229458E-2
1.809340682E0,5.712312087E-2,-1.585865617E-1,1.983996481E-2
1.811807765E0,5.392742157E-2,-1.340862066E-1,7.057168987E-3
1.814274849E0,4.753602296E-2,-1.031944528E-1,-6.790860556E-3
1.816741984E0,4.114462435E-2,-8.402025700E-2,-2.276935615E-2
1.819209067E0,3.368799388E-2,-6.591129303E-2,-3.555215150E-2
1.821676151E0,2.410089783E-2,-4.886756465E-2,-4.620448127E-2
1.824143234E0,1.877473295E-2,-3.928046674E-2,-5.685681105E-2
1.826610370E0,1.131810062E-2,-3.715000302E-2,-7.070484012E-2
1.829073703E0,5.991935730E-3,-3.821523488E-2,-8.029194176E-2
1.831540682E0,-2.529928461E-3,-4.034570232E-2,-9.094426781E-2
1.834007661E0,-6.790860556E-3,-4.780233279E-2,-9.840089828E-2
1.836474692E0,-7.856093347E-3,-5.419373140E-2,-1.005313694E-1
1.838941672E0,-7.856093347E-3,-6.165036187E-2,-1.058575287E-1
1.841408703E0,-5.725627299E-3,-8.082455397E-2,-1.122489274E-1
1.843875682E0,1.731003635E-3,-9.893351793E-2,-1.165098622E-1
1.846342713E0,1.344856713E-2,-1.191729456E-1,-1.218360290E-1
1.848808755E0,2.516612969E-2,-1.404775977E-1,-1.250317246E-1
1.851274797E0,3.901416063E-2,-1.628475040E-1,-1.292926520E-1
1.853740838E0,5.818835273E-2,-1.852173954E-1,-1.335535944E-1
1.856206880E0,7.935985923E-2,-2.129134536E-1,-1.378145218E-1
1.858672922E0,9.959928691E-2,-2.352833450E-1,-1.495320797E-1
1.861138963E0,1.155777797E-1,-2.576532364E-1,-1.548582464E-1
1.863605005E0,1.390129030E-1,-2.768274248E-1,-1.612496525E-1
1.866071047E0,1.603175700E-1,-2.928059399E-1,-1.665758193E-1
1.868557453E0,1.837527007E-1,-3.066539466E-1,-1.761629134E-1
1.871025005E0,2.029268891E-1,-3.183715343E-1,-1.846847683E-1
1.873492505E0,2.135792226E-1,-3.214340508E-1,-1.900109351E-1
1.875960005E0,2.252967805E-1,-3.151758313E-1,-1.964023411E-1
1.878427557E0,2.316881865E-1,-3.077192008E-1,-2.038589716E-1
1.880895057E0,2.359491140E-1,-2.970668674E-1,-2.091851383E-1
1.883362609E0,2.327534109E-1,-2.789579034E-1,-2.145113051E-1
1.885830109E0,2.263620198E-1,-2.544575334E-1,-2.219679356E-1
1.888296151E0,2.231663167E-1,-2.331528813E-1,-2.251636237E-1
1.890762192E0,2.103835195E-1,-2.097177505E-1,-2.294245660E-1
1.893228234E0,1.997311860E-1,-1.852173954E-1,-2.347507328E-1
1.895694276E0,1.880136281E-1,-1.649779677E-1,-2.390116602E-1
1.898160317E0,1.762960702E-1,-1.415428370E-1,-2.432725877E-1
1.900626359E0,1.645784974E-1,-1.191729456E-1,-2.496639937E-1
1.903092401E0,1.528609395E-1,-9.999874979E-2,-2.507292330E-1
1.905558442E0,1.422086060E-1,-8.508548886E-2,-2.549901605E-1
1.908024484E0,1.304910481E-1,-7.017222792E-2,-2.592510879E-1
1.910490526E0,1.219691783E-1,-5.632419512E-2,-2.613815665E-1
1.912956567E0,1.166430190E-1,-4.354140162E-2,-2.656424940E-1
1.915422609E0,1.113168523E-1,-3.182383627E-2,-2.656424940E-1
1.917888651E0,1.134473160E-1,-2.436720580E-2,-2.688381970E-1
1.920354692E0,1.134473160E-1,-2.223674022E-2,-2.709686458E-1
1.922820734E0,1.187734827E-1,-2.436720580E-2,-2.688381970E-1
1.925286776E0,1.304910481E-1,-2.649767138E-2,-2.730991244E-1
1.927752817E0,1.454043090E-1,-2.756290510E-2,-2.730991244E-1
1.930218859E0,1.592523307E-1,-3.395430371E-2,-2.773600519E-1
1.932684901E0,1.762960702E-1,-4.034570232E-2,-2.848166823E-1
1.935150942E0,1.986659616E-1,-3.715000302E-2,-2.858819067E-1
1.937616984E0,2.210358530E-1,-4.034570232E-2,-2.933385372E-1
1.940083026E0,2.402100414E-1,-4.034570232E-2,-2.997299433E-1
1.942549067E0,2.657756507E-1,-3.182383627E-2,-3.050560951E-1
1.945015109E0,2.945369184E-1,-2.969337068E-2,-3.114475012E-1
1.947481151E0,3.201025128E-1,-2.330197208E-2,-3.189041317E-1
1.949947192E0,3.509942889E-1,-1.371487509E-2,-3.274259865E-1
1.952413234E0,3.776251078E-1,-8.388710208E-3,-3.370130956E-1
1.954879276E0,3.978645205E-1,3.328853287E-3,-3.455349505E-1
1.957345317E0,4.191691875E-1,1.611164957E-2,-3.540568352E-1
1.959811359E0,4.351477027E-1,2.569874749E-2,-3.583177626E-1
1.962277401E0,4.426043332E-1,4.487293959E-2,-3.583177626E-1
1.964743442E0,4.458000064E-1,6.404713541E-2,-3.561872840E-1
1.967218442E0,4.458000064E-1,8.322133124E-2,-3.540568352E-1
1.969685942E0,4.458000064E-1,9.600412846E-2,-3.466002047E-1
1.972153442E0,4.404738545E-1,1.045259908E-1,-3.380783200E-1
1.974620942E0,4.372781515E-1,1.066564545E-1,-3.252955377E-1
1.977088442E0,4.394086301E-1,1.023955271E-1,-3.135779798E-1
1.979555995E0,4.394086301E-1,9.280842543E-2,-2.954690158E-1
1.982023495E0,4.383433759E-1,7.789516449E-2,-2.816209793E-1
1.984490995E0,4.458000064E-1,6.617759913E-2,-2.645772398E-1
1.986953442E0,4.521914124E-1,5.872096866E-2,-2.432725877E-1
1.989420786E0,4.543218911E-1,5.552527308E-2,-2.240983993E-1
1.991888182E0,4.585828185E-1,5.552527308E-2,-2.059894353E-1
1.994355578E0,4.617785215E-1,5.659050494E-2,-1.846847683E-1
1.996822922E0,4.660394490E-1,6.298190355E-2,-1.623148769E-1
1.999290317E0,4.703003764E-1,6.830807030E-2,-1.442059278E-1
2.001757713E0,4.745613039E-1,7.150376588E-2,-1.303578913E-1
2.004225057E0,4.766917825E-1,7.363422960E-2,-1.197055578E-1
2.006688182E0,4.766917825E-1,8.002562821E-2,-1.101184636E-1
2.009155474E0,4.766917825E-1,8.215609938E-2,-1.015966013E-1
2.011622765E0,4.734960794E-1,9.067796171E-2,-1.015966013E-1
2.014090005E0,4.639089704E-1,1.045259908E-1,-1.015966013E-1
2.016557297E0,4.564523399E-1,1.258306503E-1,-1.005313694E-1
2.019024536E0,4.521914124E-1,1.513962448E-1,-1.090532318E-1
2.021491828E0,4.468652606E-1,1.727008969E-1,-1.229012609E-1
2.023959120E0,4.415390790E-1,1.972012669E-1,-1.346188188E-1
2.026423390E0,4.351477027E-1,2.206363827E-1,-1.463363916E-1
2.028890578E0,4.255605936E-1,2.451367527E-1,-1.623148769E-1
2.031357765E0,4.181039631E-1,2.643109560E-1,-1.782933772E-1
2.033825005E0,4.074516296E-1,2.781589627E-1,-1.942718774E-1
2.036292192E0,3.925383687E-1,2.908086181E-1,-2.113156021E-1
2.038759380E0,3.722989559E-1,3.046566546E-1,-2.262288630E-1
2.041226567E0,3.488638103E-1,3.089175820E-1,-2.432725877E-1
2.043693755E0,3.243634701E-1,3.121132851E-1,-2.571206093E-1
2.046158547E0,2.924064696E-1,3.121132851E-1,-2.730991244E-1
2.048625734E0,2.572537661E-1,3.089175820E-1,-2.880123854E-1
2.051092817E0,2.167749256E-1,3.035914004E-1,-2.986647189E-1
2.053559953E0,1.667089611E-1,3.046566546E-1,-3.125127256E-1
2.056027088E0,8.255556226E-2,3.493964374E-1,-3.295564651E-1
2.058494224E0,6.657706108E-4,3.621792197E-1,-3.561872840E-1
2.060961359E0,-5.898727849E-2,3.493964374E-1,-3.902747631E-1
2.063428495E0,-1.069227681E-1,3.291569948E-1,-4.169055820E-1
2.065894432E0,-1.495320797E-1,3.046566546E-1,-4.158403277E-1
2.068361463E0,-1.900109351E-1,2.685718834E-1,-3.998618424E-1
2.070828651E0,-2.272941023E-1,2.185059190E-1,-3.817528784E-1
2.073295734E0,-2.528596818E-1,1.482005417E-1,-3.711005449E-1
2.075762870E0,-2.667077184E-1,8.322133124E-2,-3.529915810E-1
2.078229953E0,-2.773600519E-1,2.676397935E-2,-3.359478712E-1
2.080697036E0,-2.869471312E-1,-2.117150649E-2,-3.210346103E-1
2.083164172E0,-2.922733128E-1,-6.591129303E-2,-3.093170524E-1
2.085628547E0,-2.901428342E-1,-1.074553803E-1,-2.997299433E-1
2.088095578E0,-2.805557549E-1,-1.436733007E-1,-2.901428342E-1
2.090562609E0,-2.645772398E-1,-1.852173954E-1,-2.816209793E-1
2.093029640E0,-2.390116602E-1,-2.256962508E-1,-2.762948275E-1
2.095496672E0,-2.272941023E-1,-2.555227578E-1,-2.741643488E-1
2.097963703E0,-2.379464209E-1,-2.470009029E-1,-2.667077184E-1
2.100430734E0,-2.571206093E-1,-2.459356785E-1,-2.699034214E-1
2.102897765E0,-2.709686458E-1,-2.597837150E-1,-2.784252763E-1
2.105365422E0,-2.816209793E-1,-2.768274248E-1,-2.901428342E-1
2.107832401E0,-2.837514579E-1,-3.045234978E-1,-3.061213493E-1
2.110299484E0,-2.848166823E-1,-3.278254569E-1,-3.189041317E-1
2.112766567E0,-2.858819067E-1,-3.427387178E-1,-3.284912407E-1
2.115233599E0,-2.858819067E-1,-3.501953483E-1,-3.423392773E-1
2.117700682E0,-2.837514579E-1,-3.491301239E-1,-3.551220596E-1
2.120167713E0,-2.837514579E-1,-3.406082690E-1,-3.700353205E-1
2.122634745E0,-2.848166823E-1,-3.256950080E-1,-3.945356905E-1
2.125098130E0,-2.848166823E-1,-3.066539466E-1,-4.190360308E-1
2.127565109E0,-2.869471312E-1,-2.864145339E-1,-4.476641715E-1
2.130032088E0,-2.912080884E-1,-2.640446424E-1,-4.753602445E-1
2.132499015E0,-2.933385372E-1,-2.448704392E-1,-5.073172450E-1
2.134965995E0,-3.029256463E-1,-2.278267145E-1,-5.371437669E-1
2.137432974E0,-3.125127256E-1,-2.011958808E-1,-5.627093315E-1
2.139899901E0,-3.167736828E-1,-1.841521561E-1,-5.893401504E-1
2.142366880E0,-3.210346103E-1,-1.809564531E-1,-6.170362234E-1
2.144832245E0,-3.252955377E-1,-1.703041345E-1,-6.415365934E-1
2.147299172E0,-3.316869438E-1,-1.596518010E-1,-6.628412604E-1
2.149766099E0,-3.327521682E-1,-1.468690038E-1,-6.830806732E-1
2.152233026E0,-3.380783200E-1,-1.383471340E-1,-7.033200860E-1
2.154699953E0,-3.434045017E-1,-1.287600398E-1,-7.192986012E-1
2.157166880E0,-3.508611321E-1,-1.127815470E-1,-7.363423109E-1
2.159633807E0,-3.497959077E-1,-9.786828607E-2,-7.533860803E-1
2.162100682E0,-3.529915810E-1,-9.147688746E-2,-7.682993412E-1
2.164567870E0,-3.497959077E-1,-7.762885839E-2,-7.832126021E-1
2.167034797E0,-3.434045017E-1,-6.378082931E-2,-7.981258631E-1
2.169501724E0,-3.348826170E-1,-4.886756465E-2,-8.119738698E-1
2.171968651E0,-3.274259865E-1,-3.501953557E-2,-8.258218765E-1
2.174435578E0,-3.157084286E-1,-2.436720580E-2,-8.407351375E-1
2.176902505E0,-3.039908707E-1,-1.584534161E-2,-8.609746099E-1
2.179369432E0,-2.965342402E-1,-3.062544856E-3,-8.769530654E-1
2.181836359E0,-2.933385372E-1,8.655018173E-3,-8.982577324E-1
2.184302453E0,-2.997299433E-1,2.782921307E-2,-9.195623994E-1
2.186769380E0,-3.125127256E-1,4.380770773E-2,-9.472584724E-1
2.189236255E0,-3.295564651E-1,6.085143611E-2,-9.728240371E-1
2.191703182E0,-3.497959077E-1,7.576470077E-2,-1.000520110E0
2.194170109E0,-3.732310236E-1,9.174319357E-2,-1.025020480E0
2.196637036E0,-3.998618424E-1,9.493889660E-2,-1.053648591E0
2.199103911E0,-4.275579154E-1,9.493889660E-2,-1.080279469E0
2.201570786E0,-4.541887343E-1,9.067796171E-2,-1.104779840E0
2.204021255E0,-4.786891043E-1,8.002562821E-2,-1.128214955E0
2.206487765E0,-4.999937415E-1,7.256899774E-2,-1.151650071E0
2.208954224E0,-5.159722567E-1,5.552527308E-2,-1.166563272E0
2.211420734E0,-5.276898146E-1,3.422060981E-2,-1.181476593E0
2.213887245E0,-5.350132585E-1,8.655018173E-3,-1.197455049E0
2.216353755E0,-5.403394699E-1,-2.223674022E-2,-1.211303115E0
2.218820213E0,-5.435351729E-1,-5.525896326E-2,-1.221955419E0
2.221286724E0,-5.414046645E-1,-8.615072072E-2,-1.232607722E0
2.223757036E0,-5.414046645E-1,-1.159772426E-1,-1.234738231E0
2.226223651E0,-5.414046645E-1,-1.404775977E-1,-1.232607722E0
2.228690213E0,-5.392742157E-1,-1.671084315E-1,-1.227281570E0
2.231156828E0,-5.298202634E-1,-1.926740259E-1,-1.218759775E0
2.233623390E0,-5.191679597E-1,-2.225005478E-1,-1.209172606E0
2.236090005E0,-5.042546988E-1,-2.448704392E-1,-1.195324659E0
2.238556567E0,-4.904066622E-1,-2.651098669E-1,-1.181476593E0
2.241023182E0,-4.722976983E-1,-2.821536064E-1,-1.170824289E0
2.243491567E0,-4.563191831E-1,-2.906754613E-1,-1.158041477E0
2.245958234E0,-4.403406978E-1,-2.832188308E-1,-1.143128157E0
2.248424849E0,-4.286231399E-1,-2.704360485E-1,-1.131410599E0
2.250891515E0,-4.201012850E-1,-2.491313666E-1,-1.125019193E0
2.253358130E0,-4.169055820E-1,-2.235657871E-1,-1.116497397E0
2.255824745E0,-4.147751033E-1,-1.948044896E-1,-1.107975483E0
2.258291411E0,-4.169055820E-1,-1.734998226E-1,-1.094127417E0
2.260758026E0,-4.094489515E-1,-1.745650619E-1,-1.060039997E0
2.263226984E0,-3.977313936E-1,-1.862826198E-1,-1.001585364E0
2.265693651E0,-3.828181326E-1,-2.118482143E-1,-9.355409145E-1
2.268160370E0,-3.668396175E-1,-2.438052148E-1,-8.705616593E-1
2.270627036E0,-3.508611321E-1,-2.789579034E-1,-8.087781668E-1
2.273093755E0,-3.402087986E-1,-3.077192008E-1,-7.480598688E-1
2.275560422E0,-3.380783200E-1,-3.267602324E-1,-6.969286799E-1
2.278027140E0,-3.487306535E-1,-3.256950080E-1,-6.532541513E-1
2.280493807E0,-3.966661394E-1,-2.725664973E-1,-6.117100716E-1
2.282962453E0,-4.446016252E-1,-2.768274248E-1,-5.904054046E-1
2.285429172E0,-4.680367708E-1,-3.066539466E-1,-5.818835497E-1
2.287895942E0,-4.808195531E-1,-3.416734934E-1,-5.765573978E-1
2.290362661E0,-4.808195531E-1,-3.768261969E-1,-5.818835497E-1
2.292829380E0,-4.786891043E-1,-4.162397981E-1,-5.850792527E-1
2.295296151E0,-4.722976983E-1,-4.386096895E-1,-5.914706588E-1
2.297762870E0,-4.722976983E-1,-4.396749437E-1,-5.989272594E-1
2.300229640E0,-4.829500318E-1,-4.322183132E-1,-6.170362234E-1
2.302696411E0,-5.010589957E-1,-4.194355011E-1,-6.479279995E-1
2.305163130E0,-5.170374513E-1,-4.023917615E-1,-6.841459274E-1
2.307629901E0,-5.350132585E-1,-3.810871243E-1,-7.192986012E-1
2.310096620E0,-5.531222224E-1,-3.640433848E-1,-7.565817833E-1
2.312563390E0,-5.584484339E-1,-3.512606025E-1,-7.864083052E-1
2.315030109E0,-5.531222224E-1,-3.406082690E-1,-8.119738698E-1
2.317496828E0,-5.446003675E-1,-3.331516385E-1,-8.279523849E-1
2.319963599E0,-5.255593657E-1,-3.288906813E-1,-8.364742398E-1
2.322447817E0,-4.967980385E-1,-3.256950080E-1,-8.492570519E-1
2.324915005E0,-4.659062922E-1,-3.288906813E-1,-8.535179496E-1
2.327382192E0,-4.296883643E-1,-3.310211599E-1,-8.588441014E-1
2.329849380E0,-3.892095089E-1,-3.256950080E-1,-8.631050587E-1
2.332316567E0,-3.540568352E-1,-3.130453527E-1,-8.641703129E-1
2.334783703E0,-3.210346103E-1,-2.960016131E-1,-8.652355075E-1
2.337250890E0,-2.901428342E-1,-2.704360485E-1,-8.652355075E-1
2.339718078E0,-2.624467909E-1,-2.406095117E-1,-8.684312105E-1
2.342181828E0,-2.390116602E-1,-2.171743810E-1,-8.737573624E-1
2.344648911E0,-2.166417688E-1,-1.905435622E-1,-8.790835738E-1
2.347115995E0,-2.006632686E-1,-1.607170254E-1,-8.812140226E-1
2.349583078E0,-1.846847683E-1,-1.362166703E-1,-8.876054287E-1
2.352050213E0,-1.708367467E-1,-1.213034093E-1,-8.929315805E-1
2.354517297E0,-1.559234858E-1,-1.053249165E-1,-8.961272836E-1
2.356984380E0,-1.442059278E-1,-9.360735118E-2,-9.003882408E-1
2.359451463E0,-1.314231306E-1,-8.828118443E-2,-9.078448415E-1
2.361918078E0,-1.197055578E-1,-8.934641629E-2,-9.153015018E-1
2.364385161E0,-1.111836955E-1,-9.360735118E-2,-9.216928482E-1
2.366852245E0,-1.058575287E-1,-9.573781490E-2,-9.291495085E-1
2.369319328E0,-9.946613014E-2,-1.117163152E-1,-9.355409145E-1
2.371786411E0,-9.200949967E-2,-1.415428370E-1,-9.419323206E-1
2.374253495E0,-8.242240548E-2,-1.713693589E-1,-9.525846243E-1
2.376720578E0,-7.390054315E-2,-2.075872868E-1,-9.579107761E-1
2.379187609E0,-6.644391268E-2,-2.533923090E-1,-9.611064792E-1
2.381652974E0,-6.324820966E-2,-2.970668674E-1,-9.643021822E-1
2.384120005E0,-5.898727849E-2,-3.427387178E-1,-9.685631394E-1
2.386587036E0,-5.579157919E-2,-4.002613127E-1,-9.717588425E-1
2.389054067E0,-5.472634733E-2,-4.577838778E-1,-9.781502485E-1
2.391521099E0,-5.579157919E-2,-5.185021758E-1,-9.834764004E-1
2.393988130E0,-5.685681105E-2,-5.728290677E-1,-9.898678064E-1
2.396455161E0,-6.431344151E-2,-6.207645535E-1,-9.941287041E-1
2.398922192E0,-7.177007198E-2,-6.697652340E-1,-9.994548559E-1
2.401389849E0,-8.135717362E-2,-7.145050764E-1,-1.007976770E0
2.403856880E0,-9.200949967E-2,-7.539186478E-1,-1.015433431E0
2.406323911E0,-1.026618332E-1,-7.954627872E-1,-1.019694328E0
2.408790995E0,-1.154446304E-1,-8.444634676E-1,-1.027150989E0
2.411258026E0,-1.250317246E-1,-8.987903595E-1,-1.037803292E0
2.413725109E0,-1.356840581E-1,-9.465926886E-1,-1.050452948E0
2.416192140E0,-1.495320797E-1,-9.955934286E-1,-1.063235760E0
2.418659172E0,-1.644453406E-1,-1.053115964E0,-1.072822809E0
2.421123651E0,-1.740324497E-1,-1.120225668E0,-1.084540367E0
2.423590682E0,-1.836195439E-1,-1.193726778E0,-1.094127417E0
2.426057661E0,-1.953371018E-1,-1.271488786E0,-1.100518823E0
2.428524640E0,-2.038589716E-1,-1.339663625E0,-1.106910229E0
2.430991620E0,-2.134460658E-1,-1.398251534E0,-1.109040737E0
2.433458599E0,-2.209026963E-1,-1.455774069E0,-1.113301635E0
2.435925578E0,-2.230331600E-1,-1.512231469E0,-1.131410599E0
2.438392609E0,-2.304897904E-1,-1.564294696E0,-1.164432883E0
2.440858807E0,-2.443378270E-1,-1.601577878E0,-1.193194151E0
2.443325786E0,-2.549901605E-1,-1.632469654E0,-1.227281570E0
2.445792765E0,-2.688381970E-1,-1.647382855E0,-1.260303855E0
2.448259745E0,-2.880123854E-1,-1.642056704E0,-1.292260766E0
2.450726724E0,-3.157084286E-1,-1.616491079E0,-1.316761136E0
2.453193651E0,-3.476654291E-1,-1.587729812E0,-1.345522404E0
2.455660630E0,-3.817528784E-1,-1.539794326E0,-1.364696622E0
2.458127609E0,-4.179708064E-1,-1.478143930E0,-1.386001348E0
2.460591620E0,-4.509930313E-1,-1.417425752E0,-1.396653652E0
2.463058547E0,-4.850804806E-1,-1.359903097E0,-1.407305956E0
2.465525422E0,-5.117112994E-1,-1.310902357E0,-1.423284531E0
2.467992297E0,-5.414046645E-1,-1.270423532E0,-1.450980544E0
2.470459224E0,-5.648398399E-1,-1.229944706E0,-1.479741812E0
2.472926099E0,-5.925358534E-1,-1.194792032E0,-1.501046538E0
2.475393026E0,-6.138405204E-1,-1.157508850E0,-1.511698842E0
2.477859901E0,-6.351451874E-1,-1.117030025E0,-1.520220637E0
2.480328338E0,-6.639064550E-1,-1.079746842E0,-1.527677298E0
2.482795265E0,-6.884068251E-1,-1.053115964E0,-1.534068704E0
2.485262245E0,-6.127753258E-1,-9.881367683E-1,-1.540460110E0
2.487729172E0,-3.029256463E-1,-7.784190178E-1,-1.481872320E0
2.490196099E0,-1.015966013E-1,-5.270240307E-1,-1.335935354E0
2.492663026E0,-2.038589716E-1,-3.533910513E-1,-1.243260145E0
2.495129953E0,-3.604482114E-1,-3.523258269E-1,-1.232607722E0
2.497596880E0,-4.158403277E-1,-4.013265371E-1,-1.238999128E0
2.500063026E0,-4.211665094E-1,-4.386096895E-1,-1.246455789E0
2.502529953E0,-4.254274368E-1,-4.961322844E-1,-1.259238601E0
2.504996880E0,-4.371449947E-1,-5.376763940E-1,-1.261369109E0
2.507463807E0,-4.573844373E-1,-5.589810014E-1,-1.243260145E0
2.509930682E0,-4.786891043E-1,-5.781552196E-1,-1.218759775E0
2.512397609E0,-4.967980385E-1,-5.920032263E-1,-1.204911709E0
2.514864536E0,-5.170374513E-1,-5.888075829E-1,-1.196389794E0
2.517331463E0,-5.392742157E-1,-5.813509226E-1,-1.178280830E0
2.519798286E0,-5.659050345E-1,-5.472634435E-1,-1.156976223E0
2.522265213E0,-5.957315564E-1,-4.993279874E-1,-1.132475853E0
2.524732140E0,-6.117100716E-1,-4.684362113E-1,-1.118627787E0
2.527199015E0,-6.138405204E-1,-4.524577260E-1,-1.118627787E0
2.529665942E0,-6.085143685E-1,-4.322183132E-1,-1.122888803E0
2.532132870E0,-6.085143685E-1,-4.215659797E-1,-1.126084447E0
2.534599797E0,-6.149057746E-1,-3.896089792E-1,-1.115432143E0
2.537066672E0,-6.362104416E-1,-3.320863843E-1,-1.090931773E0
2.539534015E0,-6.436670423E-1,-3.130453527E-1,-1.077083707E0
2.542000942E0,-6.330147386E-1,-3.151758313E-1,-1.079214215E0
2.544467870E0,-6.191666722E-1,-3.278254569E-1,-1.083475113E0
2.546934797E0,-6.021229625E-1,-3.469996452E-1,-1.087736130E0
2.549401724E0,-5.999925137E-1,-3.555215299E-1,-1.084540367E0
2.551868651E0,-6.106448174E-1,-3.555215299E-1,-1.074953318E0
2.554335578E0,-6.234276295E-1,-3.597824574E-1,-1.068561912E0
2.556802505E0,-6.457974911E-1,-3.438039720E-1,-1.067496657E0
2.559268130E0,-6.820154190E-1,-3.141105771E-1,-1.062170506E0
2.561735057E0,-7.480598688E-1,-2.342181057E-1,-1.043129444E0
2.564201932E0,-8.023867607E-1,-1.894783229E-1,-1.023955226E0
2.566668807E0,-8.460613489E-1,-1.862826198E-1,-1.031411886E0
2.569135682E0,-8.982577324E-1,-1.649779677E-1,-1.034607530E0
2.571602609E0,-9.568455815E-1,-1.415428370E-1,-1.026085734E0
2.574069484E0,-1.007976770E0,-1.234338731E-1,-1.012237668E0
2.576536359E0,-1.054847002E0,-9.999874979E-2,-9.930635095E-1
2.579004172E0,-1.101717234E0,-8.934641629E-2,-9.792154431E-1
2.581471099E0,-1.140997767E0,-8.828118443E-2,-9.706935883E-1
2.583938026E0,-1.178280830E0,-7.869409025E-2,-9.717588425E-1
2.586404953E0,-1.215564013E0,-7.656362653E-2,-9.749545455E-1
2.588871880E0,-1.256042838E0,-7.123745978E-2,-9.706935883E-1
2.591338755E0,-1.299717426E0,-6.058513001E-2,-9.664326906E-1
2.593805682E0,-1.346587658E0,-5.951989442E-2,-9.589760303E-1
2.596272609E0,-1.400914550E0,-4.567186534E-2,-9.547150731E-1
2.598740786E0,-1.457371950E0,-2.649767138E-2,-9.461932182E-1
2.601207765E0,-1.505307436E0,-2.330197208E-2,-9.376713634E-1
2.603674692E0,-1.555373311E0,-1.478010789E-2,-9.312799573E-1
2.606141672E0,-1.604374051E0,6.524552125E-3,-9.280842543E-1
2.608608599E0,-1.656570554E0,3.422060981E-2,-9.206276536E-1
2.611075526E0,-1.703440785E0,5.446003750E-2,-9.153015018E-1
2.613542505E0,-1.741789103E0,5.126433820E-2,-9.163666964E-1
2.616009432E0,-1.765091062E0,3.528584540E-2,-9.270190597E-1
2.618473442E0,-1.786395788E0,1.824211515E-2,-9.344756603E-1
2.620940317E0,-1.814091802E0,5.459319334E-3,-9.355409145E-1
2.623407192E0,-1.844983578E0,3.328853287E-3,-9.302147627E-1
2.625874067E0,-1.869483948E0,-8.388710208E-3,-9.270190597E-1
2.628340942E0,-1.876940608E0,-2.436720580E-2,-9.387366176E-1
2.630807817E0,-1.889723420E0,-1.584534161E-2,-9.440627694E-1
2.633274692E0,-1.903571367E0,-1.371487509E-2,-9.515193701E-1
2.635741567E0,-1.906767130E0,-8.388710208E-3,-9.664326906E-1
2.638206047E0,-1.902506232E0,1.291595027E-2,-9.781502485E-1
2.640672870E0,-1.886527658E0,2.676397935E-2,-9.919982553E-1
2.643139692E0,-1.871614456E0,3.102491237E-2,-1.012237668E0
2.645606463E0,-1.862027287E0,4.380770773E-2,-1.037803292E0
2.648073286E0,-1.849244475E0,6.830807030E-2,-1.064300895E0
2.650540109E0,-1.840722680E0,1.002650559E-1,-1.081344724E0
2.653006932E0,-1.825809360E0,1.162435561E-1,-1.100518823E0
2.655473755E0,-1.794917703E0,1.162435561E-1,-1.121823549E0
2.657945630E0,-1.741789103E0,7.789516449E-2,-1.139932513E0
2.660412609E0,-1.689592719E0,1.717688330E-2,-1.159106731E0
2.662879536E0,-1.626744032E0,-1.051917579E-2,-1.162302375E0
2.665346463E0,-1.554308176E0,-1.371487509E-2,-1.155910969E0
2.667813442E0,-1.481872320E0,-1.371487509E-2,-1.163367629E0
2.670280370E0,-1.410501719E0,-1.997311832E-3,-1.201715946E0
2.672747297E0,-1.352979064E0,3.102491237E-2,-1.221955419E0
2.675214224E0,-1.317826390E0,7.682993263E-2,-1.227281570E0
2.677680422E0,-1.292260766E0,1.055912226E-1,-1.242194891E0
2.680147349E0,-1.249651432E0,1.183740199E-1,-1.253912449E0
2.682614276E0,-1.193194151E0,1.130478531E-1,-1.254977703E0
2.685081203E0,-1.134739518E0,9.067796171E-2,-1.252847195E0
2.687548130E0,-1.056977510E0,5.552527308E-2,-1.254977703E0
2.690015057E0,-9.717588425E-1,8.655018173E-3,-1.260303855E0
2.692481984E0,-8.854749799E-1,-4.354140162E-2,-1.263499498E0
2.694948911E0,-8.023867607E-1,-7.017222792E-2,-1.251781940E0
2.697419901E0,-7.054505944E-1,-1.244991124E-1,-1.248586297E0
2.699886880E0,-6.031882167E-1,-1.916087866E-1,-1.265630007E0
2.702353911E0,-5.266245604E-1,-2.278267145E-1,-1.281608462E0
2.704820942E0,-4.712324440E-1,-2.459356785E-1,-1.297586918E0
2.707287974E0,-4.318188429E-1,-2.384790480E-1,-1.298652172E0
2.709755005E0,-4.051880240E-1,-2.235657871E-1,-1.285869360E0
2.712222036E0,-3.796224296E-1,-2.065220475E-1,-1.266695261E0
2.714689067E0,-3.380783200E-1,-1.958697289E-1,-1.244325280E0
2.717155109E0,-2.848166823E-1,-1.766955256E-1,-1.233672976E0
2.719621151E0,-2.230331600E-1,-1.639127284E-1,-1.235803485E0
2.722087192E0,-1.548582464E-1,-1.362166703E-1,-1.251781940E0
2.724553234E0,-8.774857223E-2,-9.360735118E-2,-1.248586297E0
2.727019276E0,-1.424749196E-2,-7.230269164E-2,-1.251781940E0
2.729485317E0,6.564498693E-2,-5.951989442E-2,-1.275217056E0
2.731951359E0,1.390129030E-1,-3.715000302E-2,-1.278412819E0
2.734397453E0,2.093182951E-1,-3.821523488E-2,-1.272021413E0
2.736868026E0,2.817541361E-1,-4.354140162E-2,-1.294391274E0
2.739334588E0,3.520595133E-1,-5.099803209E-2,-1.324217796E0
2.741801099E0,4.031907022E-1,-6.804175675E-2,-1.327413559E0
2.744267661E0,4.191691875E-1,-9.573781490E-2,-1.326348305E0
2.746734172E0,4.212996662E-1,-1.841521561E-1,-1.346587658E0
2.749200734E0,4.266258180E-1,-2.789579034E-1,-1.302913189E0
2.751667245E0,4.138430357E-1,-3.683043122E-1,-1.184672236E0
2.754133807E0,3.904078901E-1,-4.812190235E-1,-1.004781008E0
2.756604640E0,3.733641803E-1,-6.314168572E-1,-8.290175796E-1
2.759071307E0,3.616466224E-1,-7.773538232E-1,-7.320814133E-1
2.761537974E0,3.392767310E-1,-8.732247949E-1,-6.820154190E-1
2.764004588E0,3.030588031E-1,-9.211602807E-1,-6.990591884E-1
2.766471255E0,2.625799477E-1,-9.243559837E-1,-7.778863907E-1
2.768937870E0,2.263620198E-1,-8.987903595E-1,-8.471265435E-1
2.771404536E0,2.007964253E-1,-8.838770986E-1,-8.588441014E-1
2.773871203E0,1.890788674E-1,-8.870728016E-1,-8.407351375E-1
2.776339745E0,1.858831644E-1,-8.892032504E-1,-8.290175796E-1
2.778806411E0,1.976007223E-1,-8.700290918E-1,-8.343437910E-1
2.781273130E0,2.125139832E-1,-8.082455397E-1,-8.439308405E-1
2.783739797E0,2.306229472E-1,-7.304835320E-1,-8.460613489E-1
2.786206515E0,2.604494691E-1,-6.452649236E-1,-8.396699429E-1
2.788673182E0,2.828193605E-1,-5.419372916E-1,-8.151695728E-1
2.791139901E0,3.105154335E-1,-4.652405083E-1,-7.896040082E-1
2.793606567E0,3.488638103E-1,-4.087831676E-1,-7.842777967E-1
2.796074745E0,3.829512596E-1,-3.512606025E-1,-7.906692028E-1
2.798541463E0,4.106473327E-1,-2.885449827E-1,-7.874734998E-1
2.801008182E0,4.266258180E-1,-2.193048447E-1,-7.768211961E-1
2.803474901E0,4.479304850E-1,-1.458037645E-1,-7.704297900E-1
2.805941672E0,4.692351520E-1,-7.230269164E-2,-7.651036382E-1
2.808408390E0,4.905398190E-1,3.328853287E-3,-7.565817833E-1
2.810875109E0,5.086487532E-1,9.280842543E-2,-7.437989712E-1
2.813341828E0,5.203663111E-1,1.886793971E-1,-7.320814133E-1
2.815828442E0,5.224968195E-1,2.696371078E-1,-7.459294200E-1
2.818295682E0,5.246272683E-1,3.312874734E-1,-7.640383840E-1
2.820762922E0,5.352795720E-1,3.824186623E-1,-7.427337170E-1
2.823230161E0,5.480623841E-1,4.314193726E-1,-7.001243830E-1
2.825697349E0,5.587147474E-1,4.676373005E-1,-6.649717093E-1
2.828164588E0,5.746932030E-1,4.910724163E-1,-6.340799332E-1
2.830631828E0,5.853455663E-1,5.145075321E-1,-6.053186655E-1
2.833099067E0,5.906717181E-1,5.496602654E-1,-5.744268894E-1
2.835563130E0,5.874760151E-1,5.912043452E-1,-5.435351729E-1
2.838030265E0,5.821498632E-1,6.338136196E-1,-5.115781426E-1
2.840497453E0,5.800193548E-1,6.764229536E-1,-4.721645415E-1
2.842964588E0,5.874760151E-1,7.147713304E-1,-4.382102489E-1
2.845431724E0,6.055849791E-1,7.595111728E-1,-4.073184729E-1
2.847898911E0,6.162372828E-1,7.999899983E-1,-3.817528784E-1
2.850366047E0,6.183677912E-1,8.298165202E-1,-3.583177626E-1
2.852833182E0,6.141068339E-1,8.617734909E-1,-3.306216896E-1
2.855298442E0,6.023892760E-1,8.830781579E-1,-2.858819067E-1
2.857765526E0,5.959978700E-1,8.852086663E-1,-2.432725877E-1
2.860232661E0,5.874760151E-1,8.841434121E-1,-2.027937323E-1
2.862699745E0,5.864107609E-1,8.862738609E-1,-1.761629134E-1
2.865166828E0,6.013240218E-1,9.042496681E-1,-1.782933772E-1
2.867633911E0,6.279548407E-1,9.330109954E-1,-1.964023411E-1
2.870101047E0,6.428681016E-1,9.596418142E-1,-2.038589716E-1
2.872568130E0,6.439333558E-1,9.841421843E-1,-1.942718774E-1
2.875033234E0,6.418029070E-1,1.007577300E0,-1.761629134E-1
2.877500265E0,6.428681016E-1,1.036338568E0,-1.516625583E-1
2.879967297E0,6.343462467E-1,1.044860482E0,-1.314231306E-1
2.882434380E0,5.991935730E-1,1.022490501E0,-1.079879999E-1
2.884901411E0,5.714974999E-1,1.007577300E0,-8.029194176E-2
2.887368495E0,5.512580872E-1,1.013968706E0,-5.898727849E-2
2.889835526E0,5.342143774E-1,1.023555756E0,-4.300878197E-2
2.892302557E0,5.182358623E-1,1.020360112E0,-3.022598661E-2
2.894765578E0,4.969311953E-1,1.011838198E0,-1.531272475E-2
2.897232557E0,4.841484129E-1,1.002251148E0,-5.725627299E-3
2.899699484E0,4.788222313E-1,9.649679661E-1,-8.921326138E-3
2.902166463E0,4.734960794E-1,9.180977345E-1,-2.170412242E-2
2.904633390E0,4.649742246E-1,8.873391151E-1,-3.235645220E-2
2.907100370E0,4.511261880E-1,8.724258542E-1,-3.448691964E-2
2.909567297E0,4.372781515E-1,8.521864414E-1,-4.407401755E-2
2.912034276E0,4.244953692E-1,8.244903684E-1,-5.792204663E-2
2.914501880E0,4.234301150E-1,7.978595495E-1,-7.283531129E-2
2.916968859E0,4.149082601E-1,7.765548825E-1,-8.561810106E-2
2.919435838E0,4.063864052E-1,7.595111728E-1,-1.005313694E-1
2.921902817E0,4.031907022E-1,7.296846509E-1,-1.175750941E-1
2.924369797E0,3.989297748E-1,7.073147297E-1,-1.335535944E-1
2.926836724E0,3.872122169E-1,7.115756869E-1,-1.378145218E-1
2.929303703E0,3.733641803E-1,7.275541425E-1,-1.452711523E-1
2.931770682E0,3.573856652E-1,7.414022088E-1,-1.537930220E-1
2.934238286E0,3.467333615E-1,7.499240637E-1,-1.623148769E-1
2.936705317E0,3.275591433E-1,7.456631064E-1,-1.750976741E-1
2.939172297E0,2.966673970E-1,7.318150997E-1,-1.836195439E-1
2.941639276E0,2.636451721E-1,7.232932448E-1,-1.889457107E-1
2.944106255E0,2.284924835E-1,7.094451785E-1,-1.868152469E-1
2.946573234E0,1.922745556E-1,6.881405115E-1,-1.825543046E-1
2.949040213E0,1.549914032E-1,6.583139896E-1,-1.761629134E-1
2.951507192E0,1.230344176E-1,6.189003587E-1,-1.708367467E-1
2.953972974E0,9.640359133E-2,5.720301270E-1,-1.740324497E-1
2.956439953E0,7.310161740E-2,5.315513015E-1,-1.729672104E-1
2.958906880E0,4.647079110E-2,4.953333437E-1,-1.750976741E-1
2.961373859E0,2.090519853E-2,4.612458944E-1,-1.825543046E-1
2.963840838E0,1.731003635E-3,4.218322635E-1,-1.921414137E-1
2.966307765E0,-2.170412242E-2,3.845491111E-1,-1.995980442E-1
2.968774745E0,-5.259587988E-2,3.600487709E-1,-2.070546746E-1
2.971241672E0,-9.413997084E-2,3.760272563E-1,-2.113156021E-1
2.973709380E0,-1.314231306E-1,3.653749228E-1,-2.177069932E-1
2.976176359E0,-1.484668553E-1,3.344831765E-1,-2.251636237E-1
2.978643338E0,-1.665758193E-1,3.163742125E-1,-2.294245660E-1
2.981110317E0,-1.804238409E-1,2.982652485E-1,-2.336854935E-1
2.983577297E0,-1.868152469E-1,2.728328109E-1,-2.390116602E-1
2.986044276E0,-1.932066381E-1,2.653761804E-1,-2.464682907E-1
2.988511255E0,-2.070546746E-1,2.781589627E-1,-2.539249361E-1
2.990978234E0,-2.219679356E-1,2.940043211E-1,-2.592510879E-1
2.993440057E0,-2.294245660E-1,3.153089881E-1,-2.677729428E-1
2.995906880E0,-2.379464209E-1,3.440702558E-1,-2.762948275E-1
2.998373755E0,-2.464682907E-1,3.749620318E-1,-2.848166823E-1
3.000840578E0,-2.539249361E-1,3.983971477E-1,-2.869471312E-1
3.003307453E0,-2.613815665E-1,4.239627421E-1,-2.869471312E-1
3.005774276E0,-2.624467909E-1,4.410064816E-1,-2.869471312E-1
3.008241151E0,-2.688381970E-1,4.431369305E-1,-2.922733128E-1
3.010707974E0,-2.677729428E-1,4.473978579E-1,-2.965342402E-1
3.013158026E0,-2.624467909E-1,4.314193726E-1,-3.029256463E-1
3.015624432E0,-2.677729428E-1,4.111799598E-1,-3.103822768E-1
3.018090890E0,-2.762948275E-1,3.973319232E-1,-3.082517982E-1
3.020557297E0,-2.848166823E-1,3.781577349E-1,-3.007951677E-1
3.023023703E0,-2.922733128E-1,3.525921404E-1,-3.007951677E-1
3.025490161E0,-2.965342402E-1,3.323526978E-1,-3.103822768E-1
3.027956567E0,-2.986647189E-1,3.121132851E-1,-3.125127256E-1
3.030422974E0,-3.007951677E-1,2.972000241E-1,-3.157084286E-1
3.032912974E0,-3.039908707E-1,2.845503688E-1,-3.167736828E-1
3.035379953E0,-3.039908707E-1,2.643109560E-1,-3.274259865E-1
3.037846984E0,-3.029256463E-1,2.493976802E-1,-3.359478712E-1
3.040314015E0,-3.050560951E-1,2.387453467E-1,-3.412740231E-1
3.042780995E0,-3.093170524E-1,2.248973250E-1,-3.466002047E-1
3.045248026E0,-3.125127256E-1,2.195711583E-1,-3.476654291E-1
3.047715057E0,-3.061213493E-1,2.046578974E-1,-3.466002047E-1
3.050182036E0,-2.986647189E-1,1.908098608E-1,-3.444697261E-1
3.052646776E0,-2.880123854E-1,1.758965999E-1,-3.412740231E-1
3.055113755E0,-2.794905007E-1,1.588528752E-1,-3.370130956E-1
3.057580734E0,-2.709686458E-1,1.428743750E-1,-3.316869438E-1
3.060047661E0,-2.613815665E-1,1.332872808E-1,-3.284912407E-1
3.062514640E0,-2.581858635E-1,1.237001866E-1,-3.306216896E-1
3.064981567E0,-2.560553849E-1,1.258306503E-1,-3.348826170E-1
3.067448547E0,-2.539249361E-1,1.300915778E-1,-3.434045017E-1
3.069915526E0,-2.549901605E-1,1.364829838E-1,-3.434045017E-1
3.072382713E0,-2.528596818E-1,1.471353173E-1,-3.444697261E-1
3.074849692E0,-2.549901605E-1,1.492657810E-1,-3.529915810E-1
3.077316672E0,-2.571206093E-1,1.545919478E-1,-3.572525382E-1
3.079783651E0,-2.613815665E-1,1.663095057E-1,-3.561872840E-1
3.082250578E0,-2.741643488E-1,1.758965999E-1,-3.604482114E-1
3.084717557E0,-2.805557549E-1,1.769618392E-1,-3.604482114E-1
3.087184536E0,-2.933385372E-1,1.748313755E-1,-3.625786901E-1
3.089651463E0,-3.039908707E-1,1.769618392E-1,-3.668396175E-1
3.092119328E0,-3.178389072E-1,1.854836941E-1,-3.636439145E-1
3.094586359E0,-3.252955377E-1,1.886793971E-1,-3.604482114E-1
3.097053338E0,-3.306216896E-1,1.929403245E-1,-3.529915810E-1
3.099520317E0,-3.359478712E-1,2.057231218E-1,-3.466002047E-1
3.101987297E0,-3.423392773E-1,2.163754553E-1,-3.391435742E-1
3.104454276E0,-3.508611321E-1,2.195711583E-1,-3.263607621E-1
3.106921255E0,-3.593829870E-1,2.259625494E-1,-3.114475012E-1
3.109388286E0,-3.711005449E-1,2.206363827E-1,-2.986647189E-1
3.111866776E0,-3.838833570E-1,2.078536004E-1,-2.826862037E-1
3.114334067E0,-3.987966180E-1,1.876141727E-1,-2.699034214E-1
3.116801359E0,-4.062532485E-1,1.673747450E-1,-2.560553849E-1
3.119268599E0,-4.147751033E-1,1.471353173E-1,-2.432725877E-1
3.121735890E0,-4.254274368E-1,1.332872808E-1,-2.326202542E-1
3.124203182E0,-4.318188429E-1,1.268958896E-1,-2.187722325E-1
3.126670474E0,-4.403406978E-1,1.205044836E-1,-2.091851383E-1
3.129137713E0,-4.499278069E-1,1.109173894E-1,-2.006632686E-1
3.131603755E0,-4.605801404E-1,1.045259908E-1,-1.942718774E-1
3.134069797E0,-4.818847775E-1,1.087869257E-1,-1.782933772E-1
3.136535838E0,-5.074504018E-1,1.023955271E-1,-1.612496525E-1
3.139001880E0,-5.276898146E-1,9.813459218E-2,-1.505973190E-1
3.141467922E0,-5.414046645E-1,9.067796171E-2,-1.367492825E-1
3.143933963E0,-5.456656218E-1,8.215609938E-2,-1.399449855E-1
3.146400005E0,-5.509917736E-1,5.978620425E-2,-1.537930220E-1
3.148866047E0,-5.435351729E-1,2.250304818E-2,-1.687062830E-1
3.151342349E0,-5.350132585E-1,1.291595027E-2,-1.814890802E-1
3.153809745E0,-5.319507122E-1,1.611164957E-2,-1.836195439E-1
3.156277140E0,-5.403394699E-1,3.848154470E-2,-1.750976741E-1
3.158744536E0,-5.520570278E-1,8.854749799E-2,-1.601844132E-1
3.161211932E0,-5.648398399E-1,1.354177445E-1,-1.505973190E-1
3.163679328E0,-5.786878467E-1,1.908098608E-1,-1.218360290E-1
3.166146724E0,-6.053186655E-1,2.174406946E-1,-8.987903595E-2
3.168614120E0,-6.564498544E-1,3.025261760E-1,-5.898727849E-2
3.171074797E0,-6.319494843E-1,3.142437339E-1,-4.194355011E-2
3.173542036E0,-5.298202634E-1,3.099828064E-1,-6.857437640E-2
3.176009276E0,-4.360797703E-1,2.845503688E-1,-8.668334037E-2
3.178476515E0,-4.094489515E-1,2.110492885E-1,-6.111774594E-2
3.180943755E0,-4.296883643E-1,1.620485783E-1,8.122402243E-3
3.183410942E0,-4.446016252E-1,1.524614692E-1,6.138405204E-2
3.185878182E0,-4.169055820E-1,1.471353173E-1,5.605788901E-2
3.188345422E0,-3.615134656E-1,1.418091506E-1,-5.725627299E-3
3.190809224E0,-3.050560951E-1,1.119826213E-1,-4.620448127E-2
3.193276359E0,-2.528596818E-1,8.215609938E-2,-6.857437640E-2
3.195743495E0,-2.123808414E-1,7.576470077E-2,-8.135717362E-2
3.198210682E0,-1.964023411E-1,6.404713541E-2,-8.774857223E-2
3.200677817E0,-1.900109351E-1,5.446003750E-2,-9.520520270E-2
3.203144953E0,-1.793586165E-1,3.209014609E-2,-1.015966013E-1
3.205612088E0,-1.708367467E-1,1.078548469E-2,-1.079879999E-1
3.208079276E0,-1.761629134E-1,4.394086078E-3,-9.946613014E-2
3.210545317E0,-1.772281379E-1,9.720250964E-3,-8.987903595E-2
3.213011359E0,-1.644453406E-1,8.655018173E-3,-8.668334037E-2
3.215477401E0,-1.591191888E-1,-1.158440951E-2,-8.135717362E-2
3.217943442E0,-1.655105799E-1,-5.525896326E-2,-7.709623873E-2
3.220409484E0,-1.793586165E-1,-5.632419512E-2,-7.496577501E-2
3.222875526E0,-2.251636237E-1,3.528584540E-2,-6.963960826E-2
3.225341567E0,-2.528596818E-1,8.748225868E-2,-5.898727849E-2
3.227807609E0,-2.645772398E-1,9.280842543E-2,-7.816147059E-2
3.230273651E0,-2.816209793E-1,9.280842543E-2,-1.015966013E-1
3.232739692E0,-3.114475012E-1,8.535179496E-2,-1.069227681E-1
3.235205734E0,-3.370130956E-1,6.511236727E-2,-1.058575287E-1
3.237671776E0,-3.434045017E-1,3.102491237E-2,-1.047922969E-1
3.240137817E0,-3.423392773E-1,3.328853287E-3,-1.058575287E-1
3.242603859E0,-3.338173926E-1,-1.264964230E-2,-1.079879999E-1
3.245049953E0,-3.220998347E-1,-1.904104091E-2,-9.946613014E-2
3.247516463E0,-3.114475012E-1,-2.010627277E-2,-8.987903595E-2
3.249985057E0,-3.007951677E-1,3.328853287E-3,-8.242240548E-2
3.252451620E0,-3.039908707E-1,4.061200842E-2,-6.431344151E-2
3.254918130E0,-3.380783200E-1,3.315537795E-2,-6.750914454E-2
3.257384692E0,-3.764267266E-1,-9.453942999E-3,-7.709623873E-2
3.259851203E0,-4.126446545E-1,-2.543243766E-2,-7.922670245E-2
3.262317765E0,-4.808195531E-1,4.274247587E-2,-6.537867337E-2
3.264784328E0,-5.669702888E-1,9.493889660E-2,-5.685681105E-2
3.267250838E0,-6.117100716E-1,5.552527308E-2,-6.644391268E-2
3.269720734E0,-6.447322965E-1,2.037258074E-2,-7.496577501E-2
3.272187401E0,-6.692326665E-1,-1.478010789E-2,-8.135717362E-2
3.274654015E0,-6.873416305E-1,-3.501953557E-2,-8.348763734E-2
3.277120630E0,-7.075810432E-1,-3.821523488E-2,-7.603100687E-2
3.279587245E0,-7.171681523E-1,-5.845466256E-2,-5.579157919E-2
3.282053859E0,-7.097114921E-1,-7.656362653E-2,-4.087831825E-2
3.284520526E0,-7.011896372E-1,-6.910699606E-2,-2.383458801E-2
3.286987140E0,-6.990591884E-1,-5.738943070E-2,-1.211702544E-2
3.289470786E0,-7.075810432E-1,-4.673709720E-2,-3.595161485E-3
3.291937817E0,-7.203638554E-1,-4.673709720E-2,-3.595161485E-3
3.294404849E0,-7.182333469E-1,-5.525896326E-2,-7.856093347E-3
3.296871932E0,-7.011896372E-1,-7.336792350E-2,-1.318225823E-2
3.299338963E0,-6.862763762E-1,-8.721595258E-2,-2.383458801E-2
3.301806047E0,-6.681674123E-1,-9.254211932E-2,-3.022598661E-2
3.304273078E0,-6.479279995E-1,-9.041165560E-2,-2.916075476E-2
3.306740109E0,-6.255580783E-1,-8.508548886E-2,-3.235645220E-2
3.309204745E0,-5.978620052E-1,-7.230269164E-2,-4.513924941E-2
3.311671776E0,-5.765573978E-1,-6.484606117E-2,-4.620448127E-2
3.314138755E0,-5.733616948E-1,-3.501953557E-2,-4.513924941E-2
3.316605734E0,-5.840139985E-1,-1.997311832E-3,-3.555215150E-2
3.319072713E0,-5.691007376E-1,-1.371487509E-2,-2.596505545E-2
3.321539745E0,-5.350132585E-1,-3.608476743E-2,-2.063889056E-2
3.324006724E0,-4.967980385E-1,-6.697652489E-2,-1.318225823E-2
3.326473703E0,-4.680367708E-1,-8.508548886E-2,-3.595161485E-3
3.328934276E0,-4.446016252E-1,-8.508548886E-2,-3.994623839E-4
3.331401099E0,-4.190360308E-1,-7.123745978E-2,1.731003635E-3
3.333867922E0,-3.924052119E-1,-5.206326395E-2,1.731003635E-3
3.336334745E0,-3.636439145E-1,-4.034570232E-2,-2.529928461E-3
3.338801620E0,-3.306216896E-1,-2.969337068E-2,-4.660394508E-3
3.341268442E0,-3.071865737E-1,-2.649767138E-2,-3.595161485E-3
3.343735265E0,-2.880123854E-1,-2.969337068E-2,-5.725627299E-3
3.346202088E0,-2.699034214E-1,-3.715000302E-2,-7.856093347E-3
3.348668130E0,-2.443378270E-1,-4.034570232E-2,-7.856093347E-3
3.351134172E0,-2.230331600E-1,-3.928046674E-2,-1.105179265E-2
3.353600213E0,-2.049241960E-1,-3.288906813E-2,-1.318225823E-2
3.356066255E0,-1.761629134E-1,-2.862813696E-2,-2.170412242E-2
3.358532297E0,-1.452711523E-1,-1.904104091E-2,-3.235645220E-2
3.360998338E0,-1.143793985E-1,-7.323476952E-3,-4.513924941E-2
3.363464380E0,-8.029194176E-2,8.655018173E-3,-4.940018058E-2
3.365930422E0,-5.792204663E-2,3.422060981E-2,-5.898727849E-2
3.368401463E0,-4.513924941E-2,4.487293959E-2,-7.177007198E-2
3.370868390E0,-3.661738336E-2,5.126433820E-2,-1.005313694E-1
3.373335265E0,-2.489982173E-2,6.830807030E-2,-1.250317246E-1
3.375802140E0,-1.850842312E-2,8.002562821E-2,-1.324883550E-1
3.378269067E0,-2.063889056E-2,8.322133124E-2,-1.239664927E-1
3.380735942E0,-3.235645220E-2,9.280842543E-2,-1.186403260E-1
3.383202817E0,-5.153064802E-2,1.109173894E-1,-1.122489274E-1
3.385669745E0,-6.857437640E-2,1.364829838E-1,-1.005313694E-1
3.388146828E0,-8.987903595E-2,1.460700780E-1,-8.881380409E-2
3.390613963E0,-1.186403260E-1,1.482005417E-1,-7.603100687E-2
3.393081099E0,-1.484668553E-1,1.567224115E-1,-6.644391268E-2
3.395548286E0,-1.782933772E-1,1.716356725E-1,-5.259587988E-2
3.398015422E0,-2.091851383E-1,1.780270636E-1,-3.235645220E-2
3.400482557E0,-2.368811965E-1,1.854836941E-1,-9.986559860E-3
3.402949692E0,-2.730991244E-1,1.972012669E-1,1.877473295E-2
3.405416880E0,-3.114475012E-1,1.972012669E-1,5.179695413E-2
3.407863963E0,-3.487306535E-1,1.833532304E-1,9.121058136E-2
3.410330630E0,-3.838833570E-1,1.663095057E-1,1.316894293E-1
3.412797297E0,-4.179708064E-1,1.471353173E-1,1.773612946E-1
3.415263911E0,-4.669715166E-1,1.098521575E-1,2.295577228E-1
3.417730578E0,-5.371437669E-1,4.487293959E-2,2.913412452E-1
3.420197245E0,-6.138405204E-1,-3.288906813E-2,3.424724042E-1
3.422663859E0,-6.724283695E-1,-6.697652489E-2,3.712337017E-1
3.425130526E0,-7.278204560E-1,-1.063901484E-1,3.850817382E-1
3.427596567E0,-7.789516449E-1,-1.521951705E-1,3.936035931E-1
3.430062609E0,-8.194305301E-1,-1.777607650E-1,4.031907022E-1
3.432528651E0,-8.513875008E-1,-1.884130985E-1,4.191691875E-1
3.434994692E0,-8.918663263E-1,-1.926740259E-1,4.308867455E-1
3.437460734E0,-9.259538054E-1,-1.873478591E-1,4.298215210E-1
3.439926776E0,-9.536498785E-1,-1.916087866E-1,4.181039631E-1
3.442392817E0,-9.941287041E-1,-1.798912287E-1,3.477985859E-1
3.444858859E0,-1.046325088E0,-1.820216924E-1,2.242315561E-1
3.447362765E0,-1.093195438E0,-2.139786780E-1,1.423417628E-1
3.449830422E0,-1.136869907E0,-2.171743810E-1,8.694964647E-2
3.452298078E0,-1.178280830E0,-1.841521561E-1,4.753602296E-2
3.454765734E0,-1.211303115E0,-1.607170254E-1,2.623136342E-2
3.457233390E0,-1.230477333E0,-1.553908736E-1,8.122402243E-3
3.459701047E0,-1.228346825E0,-1.458037645E-1,-8.921326138E-3
3.462168703E0,-1.205976963E0,-1.276948154E-1,-2.489982173E-2
3.464636359E0,-1.159106731E0,-1.085206121E-1,-3.022598661E-2
3.467088286E0,-1.113434792E0,-7.443315536E-2,-3.448691964E-2
3.469555578E0,-1.074021220E0,-4.780233279E-2,-4.300878197E-2
3.472022817E0,-1.031411886E0,-3.182383627E-2,-4.087831825E-2
3.474490109E0,-9.845415950E-1,-4.127778113E-3,-3.981308267E-2
3.476957349E0,-9.419323206E-1,1.185071748E-2,-3.129122034E-2
3.479424588E0,-8.886706233E-1,6.524552125E-3,-1.744319126E-2
3.481891880E0,-8.407351375E-1,8.655018173E-3,-1.637795754E-2
3.484359120E0,-7.959953547E-1,1.717688330E-2,-3.129122034E-2
3.486823338E0,-7.512555718E-1,3.848154470E-2,-5.472634733E-2
3.489290526E0,-7.118419409E-1,6.404713541E-2,-7.816147059E-2
3.491757713E0,-6.777545214E-1,9.067796171E-2,-9.946613014E-2
3.494224901E0,-6.511237025E-1,1.290263534E-1,-1.165098622E-1
3.496692088E0,-6.223623753E-1,1.556571722E-1,-1.292926520E-1
3.499159276E0,-5.978620052E-1,1.524614692E-1,-1.399449855E-1
3.501626463E0,-5.691007376E-1,1.375482082E-1,-1.505973190E-1
3.504093651E0,-5.446003675E-1,1.332872808E-1,-1.623148769E-1
3.506557349E0,-5.234288573E-1,1.279611140E-1,-1.708367467E-1
3.509024432E0,-5.031894445E-1,1.258306503E-1,-1.804238409E-1
3.511491515E0,-4.776238501E-1,1.226349548E-1,-1.825543046E-1
3.513958651E0,-4.488625526E-1,1.354177445E-1,-1.793586165E-1
3.516425734E0,-4.105141759E-1,1.300915778E-1,-1.708367467E-1
3.518892817E0,-3.753614724E-1,8.854749799E-2,-1.601844132E-1
3.521359901E0,-3.466002047E-1,4.274247587E-2,-1.378145218E-1
3.523827036E0,-3.220998347E-1,2.263620263E-3,-1.133141592E-1
3.526293755E0,-3.018604219E-1,-2.969337068E-2,-8.668334037E-2
3.528760838E0,-2.816209793E-1,-4.993279651E-2,-5.579157919E-2
3.531227922E0,-2.656424940E-1,-5.632419512E-2,-3.235645220E-2
3.533695005E0,-2.528596818E-1,-5.419373140E-2,-8.921326138E-3
3.536162088E0,-2.454030514E-1,-5.099803209E-2,8.122402243E-3
3.538629172E0,-2.390116602E-1,-4.034570232E-2,2.623136342E-2
3.541096255E0,-2.294245660E-1,-3.608476743E-2,4.114462435E-2
3.543563338E0,-2.251636237E-1,-4.354140162E-2,5.073172227E-2
3.546026151E0,-2.219679356E-1,-4.460663348E-2,6.138405204E-2
3.548493182E0,-2.166417688E-1,-4.993279651E-2,7.523208112E-2
3.550960161E0,-2.123808414E-1,-6.165036187E-2,8.908011019E-2
3.553427140E0,-2.049241960E-1,-5.419373140E-2,9.547150880E-2
3.555894120E0,-1.974675655E-1,-4.141093418E-2,1.050586104E-1
3.558361099E0,-1.900109351E-1,-3.821523488E-2,1.114500016E-1
3.560828078E0,-1.836195439E-1,-2.543243766E-2,1.157109365E-1
3.563295057E0,-1.814890802E-1,2.263620263E-3,1.135804728E-1
3.565748130E0,-1.793586165E-1,6.524552125E-3,1.082543060E-1
3.568214797E0,-1.729672104E-1,9.720250964E-3,9.973244369E-2
3.570681411E0,-1.687062830E-1,1.398118306E-2,7.949301600E-2
3.573148026E0,-1.676410437E-1,2.782921307E-2,4.860125855E-2
3.575614692E0,-1.740324497E-1,4.274247587E-2,1.664426550E-2
3.578081307E0,-1.793586165E-1,6.298190355E-2,-9.986559860E-3
3.580547974E0,-1.868152469E-1,8.428656310E-2,-3.981308267E-2
3.583014588E0,-1.953371018E-1,1.034607589E-1,-7.496577501E-2
3.585497453E0,-2.038589716E-1,1.215697154E-1,-1.101184636E-1
3.587964432E0,-2.102503628E-1,1.428743750E-1,-1.474016160E-1
3.590431515E0,-2.145113051E-1,1.641790420E-1,-1.836195439E-1
3.592898547E0,-2.113156021E-1,1.833532304E-1,-2.240983993E-1
3.595365578E0,-2.113156021E-1,1.972012669E-1,-2.677729428E-1
3.597832609E0,-2.038589716E-1,2.067883611E-1,-3.103822768E-1
3.600299692E0,-1.910761744E-1,2.142449915E-1,-3.529915810E-1
3.602766724E0,-1.793586165E-1,2.238320857E-1,-3.924052119E-1
3.605231932E0,-1.644453406E-1,2.664414048E-1,-4.158403277E-1
3.607698963E0,-1.527277827E-1,3.227656186E-1,-4.211665094E-1
3.610165942E0,-1.495320797E-1,3.493964374E-1,-4.201012850E-1
3.612632922E0,-1.474016160E-1,3.664401472E-1,-4.169055820E-1
3.615099953E0,-1.505973190E-1,3.770924807E-1,-4.094489515E-1
3.617566932E0,-1.548582464E-1,3.813534081E-1,-3.977313936E-1
3.620033911E0,-1.580539495E-1,3.877448142E-1,-3.870790601E-1
3.622500942E0,-1.623148769E-1,3.888100684E-1,-3.732310236E-1
3.624968703E0,-1.623148769E-1,3.941362202E-1,-3.519263566E-1
3.627435682E0,-1.655105799E-1,4.026580751E-1,-3.284912407E-1
3.629902713E0,-1.719019860E-1,4.122451842E-1,-3.039908707E-1
3.632369745E0,-1.761629134E-1,4.197018147E-1,-2.741643488E-1
3.634836724E0,-1.836195439E-1,4.207670391E-1,-2.454030514E-1
3.637303755E0,-1.900109351E-1,4.165061116E-1,-2.230331600E-1
3.639770786E0,-1.964023411E-1,4.058537781E-1,-1.953371018E-1
3.642237765E0,-1.964023411E-1,3.920057416E-1,-1.708367467E-1
3.644699536E0,-1.974675655E-1,3.707011044E-1,-1.463363916E-1
3.647166411E0,-1.921414137E-1,3.451355100E-1,-1.271621883E-1
3.649633286E0,-1.836195439E-1,3.238308430E-1,-1.090532318E-1
3.652100213E0,-1.697715074E-1,3.003957272E-1,-8.987903595E-2
3.654567088E0,-1.612496525E-1,2.792242169E-1,-6.537867337E-2
3.657033963E0,-1.505973190E-1,2.632457018E-1,-4.194355011E-2
3.659500838E0,-1.378145218E-1,2.504629195E-1,-2.489982173E-2
3.661967713E0,-1.250317246E-1,2.430062890E-1,-9.986559860E-3
3.664438026E0,-1.058575287E-1,2.398105860E-1,-1.464695437E-3
3.666905005E0,-8.668334037E-2,2.483324558E-1,1.731003635E-3
3.669371984E0,-6.750914454E-2,2.685718834E-1,9.187635034E-3
3.671838963E0,-4.940018058E-2,2.897433937E-1,2.090519853E-2
3.674305942E0,-3.661738336E-2,3.035914004E-1,3.262276202E-2
3.676772870E0,-2.063889056E-2,3.110480309E-1,3.794892505E-2
3.679239849E0,-5.725627299E-3,3.174394369E-1,4.327509180E-2
3.681706828E0,9.187635034E-3,3.270265460E-1,5.179695413E-2
3.684170474E0,1.877473295E-2,3.366136253E-1,5.818835273E-2
3.686637349E0,2.942706272E-2,3.366136253E-1,5.925358832E-2
3.689104276E0,4.114462435E-2,3.312874734E-1,5.605788901E-2
3.691571151E0,4.966649041E-2,3.312874734E-1,5.818835273E-2
3.694037974E0,5.712312087E-2,3.302222490E-1,5.925358832E-2
3.696504901E0,5.712312087E-2,3.195699155E-1,5.499265343E-2
3.698971776E0,5.818835273E-2,3.089175820E-1,4.753602296E-2
3.701438703E0,6.457975507E-2,3.067871034E-1,4.434032366E-2
3.703895422E0,6.884068251E-2,3.035914004E-1,4.434032366E-2
3.706362088E0,7.203638554E-2,2.961347699E-1,3.794892505E-2
3.708828703E0,7.097115368E-2,2.802894413E-1,2.836182900E-2
3.711295317E0,6.244928762E-2,2.760285139E-1,2.410089783E-2
3.713761984E0,6.351451576E-2,2.824199200E-1,2.516612969E-2
3.716228599E0,6.777545065E-2,3.035914004E-1,3.049229458E-2
3.718695213E0,6.671021879E-2,3.227656186E-1,3.901416063E-2
3.721161880E0,6.351451576E-2,3.462007344E-1,4.434032366E-2
3.723629067E0,6.564498693E-2,3.600487709E-1,4.647079110E-2
3.726095734E0,6.671021879E-2,3.685706258E-1,4.753602296E-2
3.728562401E0,6.564498693E-2,3.717663288E-1,4.540555924E-2
3.731029015E0,6.884068251E-2,3.707011044E-1,4.647079110E-2
3.733495682E0,7.616416365E-2,3.643096983E-1,5.073172227E-2
3.735962349E0,8.362079412E-2,3.568530679E-1,5.499265343E-2
3.738428963E0,8.894696087E-2,3.547225893E-1,6.244928762E-2
3.740895630E0,9.320788831E-2,3.547225893E-1,6.671021879E-2
3.743364484E0,9.746882319E-2,3.589835167E-1,7.203638554E-2
3.745831151E0,1.038602218E-1,3.568530679E-1,7.416684926E-2
3.748297870E0,1.113168523E-1,3.568530679E-1,7.416684926E-2
3.750764588E0,1.123820841E-1,3.493964374E-1,7.523208112E-2
3.753231255E0,1.102516204E-1,3.568530679E-1,7.736254483E-2
3.755697974E0,1.102516204E-1,3.611139953E-1,7.203638554E-2
3.758164692E0,1.059906855E-1,3.568530679E-1,7.629731297E-2
3.760631411E0,1.017297506E-1,3.600487709E-1,8.055824786E-2
3.763098495E0,8.788172156E-2,3.685706258E-1,6.990591437E-2
3.765565213E0,5.818835273E-2,3.920057416E-1,2.942706272E-2
3.768031880E0,2.942706272E-2,4.101147056E-1,-2.383458801E-2
3.770498599E0,2.796236658E-3,4.228975177E-1,-6.324820966E-2
3.772965317E0,-1.957365684E-2,4.399412274E-1,-9.946613014E-2
3.775432036E0,-5.898727849E-2,4.921376705E-1,-1.655105799E-1
3.777898755E0,-1.442059278E-1,6.412702799E-1,-2.975994647E-1
3.780365474E0,-2.688381970E-1,8.564473391E-1,-4.828168750E-1
3.782867192E0,-4.126446545E-1,1.090665460E0,-6.809502244E-1
3.785334797E0,-4.914718866E-1,1.211036801E0,-8.332785368E-1
3.787802453E0,-4.946675897E-1,1.234471917E0,-9.302147627E-1
3.790270005E0,-4.936023653E-1,1.273885489E0,-1.036738038E0
3.792737557E0,-4.808195531E-1,1.266428947E0,-1.189998388E0
3.795205161E0,-4.531235099E-1,1.015033960E0,-1.374283791E0
3.797672765E0,-4.275579154E-1,5.688344240E-1,-1.538329601E0
3.800140370E0,-4.009270668E-1,1.780270636E-1,-1.603308797E0
3.802606411E0,-3.860138059E-1,-8.721595258E-2,-1.550047159E0
3.805072453E0,-3.796224296E-1,-2.438052148E-1,-1.404110312E0
3.807538495E0,-3.615134656E-1,-3.162410557E-1,-1.167628527E0
3.810004536E0,-3.178389072E-1,-2.821536064E-1,-8.780183196E-1
3.812470578E0,-2.635120153E-1,-2.161091566E-1,-5.850792527E-1
3.814936620E0,-2.091851383E-1,-1.926740259E-1,-3.242303133E-1
3.817402661E0,-1.505973190E-1,-1.458037645E-1,-1.122489274E-1
3.819868703E0,-8.455286920E-2,-6.271559745E-2,3.475322574E-2
3.822321099E0,-7.856093347E-3,3.635107726E-2,9.227581322E-2
3.824788182E0,4.007939249E-2,1.162435561E-1,7.310161740E-2
3.827255265E0,4.753602296E-2,1.513962448E-1,2.942706272E-2
3.829722349E0,3.475322574E-2,1.620485783E-1,-3.994623839E-4
3.832189484E0,1.238333434E-2,1.450048387E-1,-7.856093347E-3
3.834656567E0,-3.595161485E-3,1.290263534E-1,-7.856093347E-3
3.837123651E0,-1.318225823E-2,1.173087880E-1,-4.660394508E-3
3.839590734E0,-2.063889056E-2,1.087869257E-1,-3.595161485E-3
3.842058390E0,-3.768261895E-2,8.002562821E-2,-5.725627299E-3
3.844525474E0,-5.792204663E-2,4.806863889E-2,-1.211702544E-2
3.846992609E0,-8.774857223E-2,1.930734888E-2,-1.744319126E-2
3.849459692E0,-1.229012609E-1,-6.258244161E-3,-1.957365684E-2
3.851926828E0,-1.623148769E-1,-3.288906813E-2,-2.489982173E-2
3.854393911E0,-1.985328048E-1,-5.632419512E-2,-2.809552103E-2
3.856861047E0,-2.336854935E-1,-7.336792350E-2,-3.874785081E-2
3.859328130E0,-2.709686458E-1,-8.508548886E-2,-5.153064802E-2
3.861788130E0,-3.071865737E-1,-9.360735118E-2,-5.792204663E-2
3.864255057E0,-3.455349505E-1,-9.254211932E-2,-7.070484012E-2
3.866721984E0,-3.785571754E-1,-7.656362653E-2,-8.668334037E-2
3.869188963E0,-4.115794003E-1,-4.354140162E-2,-1.026618332E-1
3.871655890E0,-4.403406978E-1,-7.323476952E-3,-1.229012609E-1
3.874122817E0,-4.563191831E-1,4.061200842E-2,-1.399449855E-1
3.876589745E0,-4.424711764E-1,1.098521575E-1,-1.623148769E-1
3.879056672E0,-4.264926612E-1,1.290263534E-1,-1.846847683E-1
3.881524536E0,-4.147751033E-1,1.279611140E-1,-2.027937323E-1
3.883991515E0,-4.158403277E-1,9.174319357E-2,-2.219679356E-1
3.886458442E0,-4.616453648E-1,-1.106510833E-1,-2.368811965E-1
3.888925422E0,-5.477960706E-1,-4.045222402E-1,-2.464682907E-1
3.891392349E0,-6.308842301E-1,-5.632419586E-1,-2.507292330E-1
3.893859328E0,-7.011896372E-1,-5.813509226E-1,-2.549901605E-1
3.896326307E0,-7.555165291E-1,-5.770899653E-1,-2.635120153E-1
3.898793234E0,-7.896040082E-1,-5.451329947E-1,-2.965342402E-1
3.901262870E0,-9.451280236E-1,-1.628475040E-1,-3.455349505E-1
3.903729849E0,-1.232607722E0,1.790923029E-1,-3.647091687E-1
3.906196880E0,-1.289065123E0,4.218322635E-1,-3.135779798E-1
3.908663911E0,-1.199585557E0,5.294207931E-1,-2.656424940E-1
3.911130942E0,-1.078282118E0,4.463326335E-1,-2.390116602E-1
3.913597974E0,-8.993229866E-1,3.440702558E-1,-2.113156021E-1
3.916064953E0,-6.820154190E-1,2.248973250E-1,-1.750976741E-1
3.918531984E0,-4.637758136E-1,1.045259908E-1,-1.442059278E-1
3.920998495E0,-2.581858635E-1,2.143781446E-2,-1.186403260E-1
3.923465474E0,-8.774857223E-2,-2.117150649E-2,-1.005313694E-1
3.925932505E0,3.688369319E-2,-2.330197208E-2,-9.094426781E-2
3.928399484E0,1.123820841E-1,5.459319334E-3,-8.774857223E-2
3.930866515E0,1.496652365E-1,3.422060981E-2,-8.881380409E-2
3.933333495E0,1.560566425E-1,5.446003750E-2,-8.561810106E-2
3.935800526E0,1.443390697E-1,6.298190355E-2,-8.668334037E-2
3.938267505E0,1.326215118E-1,7.363422960E-2,-8.242240548E-2
3.940730526E0,1.230344176E-1,8.535179496E-2,-7.070484012E-2
3.943197453E0,1.187734827E-1,8.641702682E-2,-6.218297780E-2
3.945664328E0,1.166430190E-1,9.174319357E-2,-5.153064802E-2
3.948131255E0,1.155777797E-1,9.813459218E-2,-4.620448127E-2
3.950598182E0,1.091863886E-1,9.919982404E-2,-3.874785081E-2
3.953065057E0,9.533835202E-2,1.055912226E-1,-2.916075476E-2
3.955531984E0,7.935985923E-2,1.034607589E-1,-2.809552103E-2
3.957998911E0,6.564498693E-2,1.023955271E-1,-2.383458801E-2
3.960468026E0,4.540555924E-2,1.119826213E-1,-2.489982173E-2
3.962935005E0,2.836182900E-2,1.237001866E-1,-2.383458801E-2
3.965401984E0,1.557903271E-2,1.322220564E-1,-2.489982173E-2
3.967868963E0,1.731003635E-3,1.418091506E-1,-3.129122034E-2
3.970335890E0,-1.318225823E-2,1.503310055E-1,-3.022598661E-2
3.972802870E0,-2.383458801E-2,1.492657810E-1,-2.703028731E-2
3.975269849E0,-3.448691964E-2,1.460700780E-1,-2.276935615E-2
3.977736776E0,-3.768261895E-2,1.386134475E-1,-2.383458801E-2
3.980202453E0,-3.874785081E-2,1.290263534E-1,-2.063889056E-2
3.982669380E0,-3.981308267E-2,1.183740199E-1,-1.744319126E-2
3.985136307E0,-4.087831825E-2,1.109173894E-1,-1.211702544E-2
3.987603286E0,-4.087831825E-2,9.706936032E-2,-1.318225823E-2
3.990070213E0,-4.513924941E-2,8.322133124E-2,-1.105179265E-2
3.992537140E0,-4.513924941E-2,7.043853402E-2,-7.856093347E-3
3.995004067E0,-4.513924941E-2,5.765573680E-2,-5.725627299E-3
3.997470995E0,-4.407401755E-2,4.593817517E-2,-3.595161485E-3
3.999937140E0,-4.300878197E-2,3.315537795E-2,-2.529928461E-3
4.002404067E0,-3.981308267E-2,2.782921307E-2,1.731003635E-3
4.004870995E0,-3.342168778E-2,2.463351376E-2,-4.660394508E-3
4.007337870E0,-3.235645220E-2,2.143781446E-2,-5.725627299E-3
4.009804797E0,-2.809552103E-2,1.824211515E-2,-4.660394508E-3
4.012271724E0,-2.489982173E-2,1.504641678E-2,-4.660394508E-3
4.014738651E0,-2.276935615E-2,1.717688330E-2,-7.856093347E-3
4.017205526E0,-1.957365684E-2,1.185071748E-2,-6.790860556E-3
4.019676099E0,-1.850842312E-2,1.078548469E-2,-6.790860556E-3
4.022143078E0,-1.424749196E-2,1.078548469E-2,-1.211702544E-2
4.024610057E0,-1.318225823E-2,8.655018173E-3,-1.318225823E-2
4.027077088E0,-1.105179265E-2,6.524552125E-3,-1.424749196E-2
4.029544067E0,-8.921326138E-3,6.524552125E-3,-1.957365684E-2
4.032011099E0,-6.790860556E-3,6.524552125E-3,-1.744319126E-2
4.034478078E0,-2.529928461E-3,6.524552125E-3,-1.850842312E-2
4.036945109E0,-2.529928461E-3,4.394086078E-3,-1.744319126E-2
4.039409849E0,-2.529928461E-3,1.331541280E-4,-2.063889056E-2
4.041876828E0,-3.994623839E-4,2.263620263E-3,-2.170412242E-2
4.044343755E0,-3.595161485E-3,-1.997311832E-3,-2.596505545E-2
4.046810734E0,-1.464695437E-3,-9.320789250E-4,-2.596505545E-2
4.049277661E0,1.731003635E-3,-9.320789250E-4,-2.276935615E-2
4.051744588E0,4.926702939E-3,-5.193010904E-3,-2.276935615E-2
4.054211567E0,1.025286783E-2,-7.323476952E-3,-2.703028731E-2
4.056678495E0,8.122402243E-3,-5.193010904E-3,-2.596505545E-2
4.059145109E0,1.025286783E-2,-1.158440951E-2,-2.916075476E-2
4.061612088E0,1.131810062E-2,-1.478010789E-2,-3.022598661E-2
4.064079015E0,1.451379992E-2,-1.371487509E-2,-3.129122034E-2
4.066545942E0,1.451379992E-2,-7.323476952E-3,-2.916075476E-2
4.069012870E0,1.344856713E-2,-7.323476952E-3,-3.555215150E-2
4.071479797E0,1.238333434E-2,-6.258244161E-3,-3.874785081E-2
4.073946776E0,9.187635034E-3,-4.127778113E-3,-3.874785081E-2
4.076413703E0,7.057168987E-3,-1.997311832E-3,-4.300878197E-2
4.078879328E0,3.861469682E-3,-9.320789250E-4,-4.940018058E-2
4.081346255E0,4.926702939E-3,6.524552125E-3,-5.366111174E-2
4.083813130E0,1.731003635E-3,1.185071748E-2,-5.579157919E-2
4.086280057E0,-3.994623839E-4,1.504641678E-2,-5.579157919E-2
4.088746984E0,-4.660394508E-3,1.611164957E-2,-6.111774594E-2
4.091213859E0,-6.790860556E-3,2.356828004E-2,-6.111774594E-2
4.093680786E0,-5.725627299E-3,2.569874749E-2,-6.857437640E-2
4.096147713E0,-2.529928461E-3,2.889444493E-2,-6.857437640E-2
4.098615786E0,-3.595161485E-3,3.528584540E-2,-6.963960826E-2
4.101082765E0,-4.660394508E-3,4.061200842E-2,-7.390054315E-2
4.103549692E0,-4.660394508E-3,3.954677656E-2,-7.496577501E-2
4.106016620E0,-3.595161485E-3,3.635107726E-2,-7.496577501E-2
4.108483547E0,1.731003635E-3,4.380770773E-2,-7.283531129E-2
4.110950474E0,3.861469682E-3,4.380770773E-2,-7.390054315E-2
4.113417401E0,2.796236658E-3,4.061200842E-2,-7.070484012E-2
4.115884380E0,1.731003635E-3,3.954677656E-2,-6.857437640E-2
4.118350161E0,5.991935730E-3,4.167724028E-2,-6.857437640E-2
4.120817088E0,1.344856713E-2,3.528584540E-2,-6.537867337E-2
4.123284015E0,1.451379992E-2,3.102491237E-2,-5.898727849E-2
4.125750890E0,1.557903271E-2,2.782921307E-2,-5.685681105E-2
4.128217817E0,1.770949923E-2,2.356828004E-2,-5.366111174E-2
4.130684692E0,1.877473295E-2,2.356828004E-2,-5.153064802E-2
4.133151620E0,1.983996481E-2,1.398118306E-2,-4.940018058E-2
4.135618547E0,2.090519853E-2,2.263620263E-3,-4.726971686E-2
4.138088338E0,2.090519853E-2,-7.323476952E-3,-4.407401755E-2
4.140555317E0,2.303566411E-2,-1.797580719E-2,-4.087831825E-2
4.143022349E0,2.623136342E-2,-2.649767138E-2,-3.448691964E-2
4.145489328E0,2.729659714E-2,-2.543243766E-2,-3.342168778E-2
4.147956307E0,2.836182900E-2,-2.649767138E-2,-3.342168778E-2
4.150423286E0,2.942706272E-2,-2.862813696E-2,-3.235645220E-2
4.152890265E0,2.942706272E-2,-3.501953557E-2,-2.916075476E-2
4.155357245E0,3.155753016E-2,-4.886756465E-2,-2.489982173E-2
4.157823547E0,3.262276202E-2,-6.378082931E-2,-2.063889056E-2
4.160290526E0,3.688369319E-2,-7.975932211E-2,-1.318225823E-2
4.162757505E0,4.007939249E-2,-9.041165560E-2,-8.921326138E-3
4.165224484E0,4.220985994E-2,-9.467258304E-2,-3.595161485E-3
4.167691463E0,4.327509180E-2,-9.041165560E-2,-3.994623839E-4
4.170158390E0,4.114462435E-2,-8.402025700E-2,-2.529928461E-3
4.172625370E0,4.327509180E-2,-7.656362653E-2,-6.790860556E-3
4.175092349E0,4.220985994E-2,-6.910699606E-2,-1.211702544E-2
4.177557140E0,4.007939249E-2,-6.484606117E-2,-1.531272475E-2
4.180024067E0,3.901416063E-2,-6.165036187E-2,-2.063889056E-2
4.182490995E0,3.901416063E-2,-5.099803209E-2,-2.489982173E-2
4.184957870E0,3.581846133E-2,-4.780233279E-2,-2.809552103E-2
4.187424797E0,2.836182900E-2,-4.034570232E-2,-3.448691964E-2
4.189891724E0,2.410089783E-2,-3.715000302E-2,-3.874785081E-2
4.192358651E0,1.664426550E-2,-3.395430371E-2,-4.300878197E-2
4.194825526E0,1.025286783E-2,-3.501953557E-2,-4.833494872E-2
4.197299588E0,5.991935730E-3,-3.395430371E-2,-4.833494872E-2
4.199766672E0,6.657706108E-4,-4.141093418E-2,-4.940018058E-2
4.202233755E0,-3.595161485E-3,-4.567186534E-2,-5.472634733E-2
4.204700838E0,-9.986559860E-3,-4.993279651E-2,-5.685681105E-2
4.207167870E0,-1.424749196E-2,-6.165036187E-2,-5.366111174E-2
4.209635005E0,-1.957365684E-2,-6.697652489E-2,-5.472634733E-2
4.212102140E0,-2.170412242E-2,-7.336792350E-2,-5.366111174E-2
4.214569224E0,-2.703028731E-2,-8.295502514E-2,-5.153064802E-2
4.217035265E0,-3.235645220E-2,-8.934641629E-2,-5.259587988E-2
4.219501307E0,-3.661738336E-2,-1.021292135E-1,-5.259587988E-2
4.221967349E0,-3.981308267E-2,-1.159772426E-1,-5.153064802E-2
4.224433390E0,-3.874785081E-2,-1.276948154E-1,-4.726971686E-2
4.226899432E0,-3.874785081E-2,-1.351514459E-1,-4.300878197E-2
4.229365474E0,-4.407401755E-2,-1.489994675E-1,-3.768261895E-2
4.231811672E0,-4.726971686E-2,-1.628475040E-1,-3.448691964E-2
4.234278182E0,-4.940018058E-2,-1.756303012E-1,-3.022598661E-2
4.236748234E0,-5.579157919E-2,-1.862826198E-1,-2.489982173E-2
4.239214849E0,-6.111774594E-2,-2.033263594E-1,-2.063889056E-2
4.241681411E0,-6.218297780E-2,-2.118482143E-1,-1.744319126E-2
4.244148026E0,-6.431344151E-2,-2.214353085E-1,-1.211702544E-2
4.246614588E0,-6.644391268E-2,-2.342181057E-1,-6.790860556E-3
4.249081203E0,-6.857437640E-2,-2.438052148E-1,-5.725627299E-3
4.251547765E0,-7.070484012E-2,-2.512618303E-1,-2.529928461E-3
4.254014380E0,-7.283531129E-2,-2.576532364E-1,1.731003635E-3
4.256483182E0,-7.496577501E-2,-2.619141638E-1,3.861469682E-3
4.258949849E0,-7.603100687E-2,-2.629793882E-1,5.991935730E-3
4.261416515E0,-7.816147059E-2,-2.683055699E-1,7.057168987E-3
4.263883130E0,-8.029194176E-2,-2.725664973E-1,3.861469682E-3
4.266349797E0,-8.561810106E-2,-2.746969759E-1,3.861469682E-3
4.268816411E0,-9.200949967E-2,-2.778926790E-1,6.657706108E-4
4.271283078E0,-9.094426781E-2,-2.810883522E-1,-1.464695437E-3
4.273749745E0,-9.413997084E-2,-2.906754613E-1,-4.660394508E-3
4.276244067E0,-9.733566642E-2,-2.981320918E-1,-9.986559860E-3
4.278711359E0,-9.840089828E-2,-3.013277948E-1,-1.318225823E-2
4.281178703E0,-1.026618332E-1,-3.055887222E-1,-1.531272475E-2
4.283646047E0,-1.037270650E-1,-3.077192008E-1,-2.063889056E-2
4.286113390E0,-1.079879999E-1,-3.109148741E-1,-2.596505545E-2
4.288580734E0,-1.122489274E-1,-3.173062801E-1,-3.129122034E-2
4.291048130E0,-1.154446304E-1,-3.194367588E-1,-3.448691964E-2
4.293515422E0,-1.154446304E-1,-3.246297538E-1,-3.768261895E-2
4.295981463E0,-1.143793985E-1,-3.352820873E-1,-4.513924941E-2
4.298447505E0,-1.133141592E-1,-3.438039720E-1,-4.940018058E-2
4.300913547E0,-1.101184636E-1,-3.416734934E-1,-4.940018058E-2
4.303379588E0,-1.133141592E-1,-3.469996452E-1,-4.940018058E-2
4.305845630E0,-1.122489274E-1,-3.544562757E-1,-5.366111174E-2
4.308311672E0,-1.101184636E-1,-3.640433848E-1,-5.579157919E-2
4.310777713E0,-1.111836955E-1,-3.672390878E-1,-6.005251035E-2
4.313243755E0,-1.090532318E-1,-3.715000153E-1,-6.644391268E-2
4.315705995E0,-1.090532318E-1,-3.768261969E-1,-6.431344151E-2
4.318173078E0,-1.122489274E-1,-3.736304939E-1,-6.431344151E-2
4.320640161E0,-1.154446304E-1,-3.725652397E-1,-6.857437640E-2
4.323107245E0,-1.175750941E-1,-3.683043122E-1,-7.070484012E-2
4.325574328E0,-1.239664927E-1,-3.597824574E-1,-6.750914454E-2
4.328041359E0,-1.250317246E-1,-3.565867543E-1,-6.857437640E-2
4.330508495E0,-1.303578913E-1,-3.480648994E-1,-6.857437640E-2
4.332975578E0,-1.367492825E-1,-3.395430148E-1,-6.750914454E-2
4.335438547E0,-1.399449855E-1,-3.299559355E-1,-6.537867337E-2
4.337905578E0,-1.452711523E-1,-3.203688264E-1,-6.750914454E-2
4.340372557E0,-1.505973190E-1,-3.109148741E-1,-6.963960826E-2
4.342839536E0,-1.591191888E-1,-3.023930192E-1,-6.644391268E-2
4.345306515E0,-1.623148769E-1,-2.864145339E-1,-6.857437640E-2
4.347773495E0,-1.633801162E-1,-2.597837150E-1,-6.324820966E-2
4.350240474E0,-1.687062830E-1,-2.384790480E-1,-5.898727849E-2
4.352707453E0,-1.687062830E-1,-2.299571782E-1,-5.792204663E-2
4.355171203E0,-1.740324497E-1,-2.278267145E-1,-5.792204663E-2
4.357638130E0,-1.729672104E-1,-2.310224175E-1,-5.685681105E-2
4.360105005E0,-1.729672104E-1,-2.320876420E-1,-5.579157919E-2
4.362571932E0,-1.750976741E-1,-2.363485843E-1,-5.259587988E-2
4.365038807E0,-1.750976741E-1,-2.395442724E-1,-5.153064802E-2
4.367505734E0,-1.708367467E-1,-2.320876420E-1,-4.726971686E-2
4.369972661E0,-1.697715074E-1,-2.288919389E-1,-4.087831825E-2
4.372439536E0,-1.697715074E-1,-2.310224175E-1,-3.661738336E-2
4.374913963E0,-1.655105799E-1,-2.363485843E-1,-3.448691964E-2
4.377381047E0,-1.601844132E-1,-2.427399755E-1,-3.022598661E-2
4.379848130E0,-1.601844132E-1,-2.416747361E-1,-2.489982173E-2
4.382315213E0,-1.569887102E-1,-2.438052148E-1,-2.063889056E-2
4.384782297E0,-1.495320797E-1,-2.448704392E-1,-1.957365684E-2
4.387249432E0,-1.442059278E-1,-2.470009029E-1,-1.318225823E-2
4.389716515E0,-1.367492825E-1,-2.491313666E-1,-5.725627299E-3
4.392183599E0,-1.282274276E-1,-2.565880120E-1,-1.464695437E-3
4.394642922E0,-1.218360290E-1,-2.523270845E-1,3.861469682E-3
4.397109849E0,-1.165098622E-1,-2.544575334E-1,5.991935730E-3
4.399576724E0,-1.069227681E-1,-2.597837150E-1,9.187635034E-3
4.402043651E0,-9.840089828E-2,-2.619141638E-1,1.238333434E-2
4.404510526E0,-8.881380409E-2,-2.576532364E-1,1.451379992E-2
4.406977401E0,-7.922670245E-2,-2.576532364E-1,1.131810062E-2
4.409444328E0,-7.177007198E-2,-2.608489394E-1,7.057168987E-3
4.411911203E0,-6.324820966E-2,-2.619141638E-1,7.057168987E-3
4.414379172E0,-5.366111174E-2,-2.544575334E-1,8.122402243E-3
4.416846099E0,-4.726971686E-2,-2.480661422E-1,8.122402243E-3
4.419313026E0,-4.194355011E-2,-2.395442724E-1,3.861469682E-3
4.421779953E0,-3.981308267E-2,-2.288919389E-1,-1.464695437E-3
4.424246880E0,-3.768261895E-2,-2.203700840E-1,-3.595161485E-3
4.426713807E0,-3.555215150E-2,-2.075872868E-1,-1.105179265E-2
4.429180734E0,-3.555215150E-2,-1.958697289E-1,-1.637795754E-2
4.431647661E0,-3.661738336E-2,-1.841521561E-1,-2.063889056E-2
4.434113807E0,-3.235645220E-2,-1.756303012E-1,-2.170412242E-2
4.436580734E0,-3.022598661E-2,-1.713693589E-1,-2.383458801E-2
4.439047609E0,-2.809552103E-2,-1.660431921E-1,-2.809552103E-2
4.441514536E0,-2.489982173E-2,-1.607170254E-1,-3.555215150E-2
4.443981463E0,-2.170412242E-2,-1.596518010E-1,-3.874785081E-2
4.446448338E0,-2.170412242E-2,-1.543256342E-1,-3.555215150E-2
4.448915265E0,-1.744319126E-2,-1.458037645E-1,-3.874785081E-2
4.451382140E0,-1.105179265E-2,-1.468690038E-1,-4.087831825E-2
4.453850370E0,-1.105179265E-2,-1.468690038E-1,-4.726971686E-2
4.456317349E0,-8.921326138E-3,-1.415428370E-1,-5.153064802E-2
4.458784276E0,-4.660394508E-3,-1.458037645E-1,-5.366111174E-2
4.461251203E0,6.657706108E-4,-1.404775977E-1,-5.472634733E-2
4.463718130E0,4.926702939E-3,-1.447385401E-1,-5.579157919E-2
4.466185057E0,8.122402243E-3,-1.500647068E-1,-6.111774594E-2
4.468652036E0,-3.994623839E-4,-1.298252791E-1,-5.579157919E-2
4.471118963E0,-3.022598661E-2,-9.254211932E-2,-5.472634733E-2
4.473585786E0,-4.726971686E-2,-5.845466256E-2,-5.898727849E-2
4.476052713E0,-5.685681105E-2,-2.649767138E-2,-6.005251035E-2
4.478519692E0,-5.472634733E-2,3.328853287E-3,-6.324820966E-2
4.480986620E0,-4.833494872E-2,-4.127778113E-3,-6.644391268E-2
4.483453547E0,-4.087831825E-2,-2.543243766E-2,-6.857437640E-2
4.485920474E0,-3.661738336E-2,-4.460663348E-2,-6.537867337E-2
4.488387401E0,-3.661738336E-2,-5.845466256E-2,-6.324820966E-2
4.490854380E0,-3.874785081E-2,-6.484606117E-2,-6.005251035E-2
4.493321776E0,-4.407401755E-2,-7.230269164E-2,-6.005251035E-2
4.495788755E0,-4.726971686E-2,-7.869409025E-2,-6.218297780E-2
4.498255682E0,-4.620448127E-2,-8.721595258E-2,-6.111774594E-2
4.500722661E0,-4.513924941E-2,-9.573781490E-2,-5.792204663E-2
4.503189588E0,-4.407401755E-2,-1.085206121E-1,-6.111774594E-2
4.505656515E0,-4.194355011E-2,-1.234338731E-1,-5.792204663E-2
4.508123495E0,-3.981308267E-2,-1.404775977E-1,-5.685681105E-2
4.510590422E0,-3.768261895E-2,-1.543256342E-1,-5.792204663E-2
4.513037349E0,-3.768261895E-2,-1.734998226E-1,-5.366111174E-2
4.515503807E0,-3.555215150E-2,-1.809564531E-1,-5.366111174E-2
4.517970265E0,-3.555215150E-2,-1.862826198E-1,-5.259587988E-2
4.520436724E0,-3.661738336E-2,-1.969349533E-1,-5.153064802E-2
4.522903130E0,-3.768261895E-2,-2.043915838E-1,-4.940018058E-2
4.525369588E0,-3.768261895E-2,-2.150439173E-1,-4.833494872E-2
4.527836099E0,-3.661738336E-2,-2.225005478E-1,-4.194355011E-2
4.530302505E0,-3.874785081E-2,-2.182396203E-1,-4.194355011E-2
4.532791203E0,-4.194355011E-2,-2.203700840E-1,-4.087831825E-2
4.535258182E0,-4.513924941E-2,-2.267614752E-1,-3.661738336E-2
4.537725213E0,-4.194355011E-2,-2.267614752E-1,-3.555215150E-2
4.540192192E0,-4.300878197E-2,-2.214353085E-1,-3.022598661E-2
4.542659224E0,-3.874785081E-2,-2.246310115E-1,-2.596505545E-2
4.545126203E0,-3.981308267E-2,-2.278267145E-1,-2.703028731E-2
4.547593234E0,-3.874785081E-2,-2.278267145E-1,-2.489982173E-2
4.550060213E0,-3.555215150E-2,-2.278267145E-1,-2.489982173E-2
4.552526099E0,-3.448691964E-2,-2.299571782E-1,-2.489982173E-2
4.554993078E0,-3.129122034E-2,-2.267614752E-1,-2.063889056E-2
4.557460057E0,-2.916075476E-2,-2.278267145E-1,-2.276935615E-2
4.559927036E0,-3.342168778E-2,-2.256962508E-1,-2.170412242E-2
4.562394015E0,-3.022598661E-2,-2.214353085E-1,-1.850842312E-2
4.564860995E0,-2.703028731E-2,-2.171743810E-1,-1.637795754E-2
4.567327974E0,-2.703028731E-2,-2.118482143E-1,-1.637795754E-2
4.569794953E0,-2.809552103E-2,-2.033263594E-1,-1.637795754E-2
4.572261620E0,-2.916075476E-2,-2.001306564E-1,-1.637795754E-2
4.574728599E0,-3.022598661E-2,-1.937392503E-1,-1.744319126E-2
4.577195578E0,-3.342168778E-2,-1.841521561E-1,-1.957365684E-2
4.579662557E0,-3.342168778E-2,-1.713693589E-1,-1.957365684E-2
4.582129536E0,-3.874785081E-2,-1.607170254E-1,-1.957365684E-2
4.584596515E0,-3.661738336E-2,-1.479342431E-1,-2.170412242E-2
4.587063442E0,-3.661738336E-2,-1.340862066E-1,-2.489982173E-2
4.589530422E0,-3.768261895E-2,-1.234338731E-1,-2.383458801E-2
4.591993026E0,-4.087831825E-2,-1.074553803E-1,-2.489982173E-2
4.594459901E0,-4.407401755E-2,-9.254211932E-2,-2.596505545E-2
4.596926776E0,-4.726971686E-2,-8.508548886E-2,-2.596505545E-2
4.599393599E0,-4.833494872E-2,-7.762885839E-2,-2.809552103E-2
4.601860474E0,-4.620448127E-2,-7.336792350E-2,-2.489982173E-2
4.604327349E0,-4.620448127E-2,-6.804175675E-2,-2.596505545E-2
4.606794172E0,-4.513924941E-2,-5.845466256E-2,-2.489982173E-2
4.609261047E0,-4.300878197E-2,-5.738943070E-2,-2.489982173E-2
4.611730370E0,-3.874785081E-2,-4.993279651E-2,-2.703028731E-2
4.614197297E0,-3.768261895E-2,-4.993279651E-2,-2.596505545E-2
4.616664224E0,-3.342168778E-2,-4.993279651E-2,-2.596505545E-2
4.619131151E0,-3.129122034E-2,-4.567186534E-2,-2.489982173E-2
4.621598078E0,-3.022598661E-2,-4.567186534E-2,-2.809552103E-2
4.624065005E0,-2.596505545E-2,-4.460663348E-2,-2.809552103E-2
4.626531932E0,-2.170412242E-2,-4.354140162E-2,-2.809552103E-2
4.628998859E0,-1.957365684E-2,-4.354140162E-2,-2.489982173E-2
4.631470265E0,-1.211702544E-2,-4.141093418E-2,-2.489982173E-2
4.633937297E0,-6.790860556E-3,-4.354140162E-2,-2.596505545E-2
4.636404328E0,-2.529928461E-3,-4.247616604E-2,-2.809552103E-2
4.638871359E0,3.861469682E-3,-3.715000302E-2,-2.809552103E-2
4.641338390E0,5.991935730E-3,-3.501953557E-2,-2.809552103E-2
4.643805422E0,1.025286783E-2,-3.821523488E-2,-2.916075476E-2
4.646272453E0,1.131810062E-2,-3.182383627E-2,-3.129122034E-2
4.648739484E0,1.025286783E-2,-2.969337068E-2,-2.916075476E-2
4.651201307E0,8.122402243E-3,-2.543243766E-2,-3.022598661E-2
4.653668234E0,7.057168987E-3,-2.117150649E-2,-3.235645220E-2
4.656135109E0,5.991935730E-3,-1.904104091E-2,-3.129122034E-2
4.658602036E0,7.057168987E-3,-1.904104091E-2,-2.916075476E-2
4.661068963E0,3.861469682E-3,-1.691057347E-2,-3.022598661E-2
4.663535838E0,4.926702939E-3,-1.904104091E-2,-2.916075476E-2
4.666002765E0,4.926702939E-3,-2.010627277E-2,-3.022598661E-2
4.668469640E0,7.057168987E-3,-2.010627277E-2,-3.235645220E-2
4.670936099E0,9.187635034E-3,-1.371487509E-2,-3.129122034E-2
4.673403026E0,8.122402243E-3,-1.264964230E-2,-3.661738336E-2
4.675869901E0,7.057168987E-3,-1.371487509E-2,-4.194355011E-2
4.678336776E0,5.991935730E-3,-5.193010904E-3,-4.194355011E-2
4.680803703E0,8.122402243E-3,1.198387123E-3,-4.833494872E-2
4.683270578E0,4.926702939E-3,3.328853287E-3,-5.153064802E-2
4.685737453E0,1.731003635E-3,1.291595027E-2,-5.259587988E-2
4.688204380E0,2.796236658E-3,1.717688330E-2,-5.366111174E-2
4.690673599E0,3.861469682E-3,2.356828004E-2,-5.685681105E-2
4.693140578E0,-3.994623839E-4,3.635107726E-2,-6.111774594E-2
4.695607557E0,-4.660394508E-3,6.511236727E-2,-6.963960826E-2
4.698074484E0,-1.957365684E-2,1.215697154E-1,-9.413997084E-2
4.700541411E0,-4.513924941E-2,1.790923029E-1,-1.218360290E-1
4.703008390E0,-6.857437640E-2,2.057231218E-1,-1.356840581E-1
4.705475317E0,-8.668334037E-2,2.057231218E-1,-1.260969639E-1
4.707942297E0,-9.520520270E-2,1.812227666E-1,-1.122489274E-1
4.710436828E0,-8.881380409E-2,1.450048387E-1,-9.733566642E-2
4.712904484E0,-7.283531129E-2,1.109173894E-1,-8.881380409E-2
4.715372088E0,-5.579157919E-2,9.387365729E-2,-8.029194176E-2
4.717839745E0,-3.022598661E-2,8.428656310E-2,-7.283531129E-2
4.720307401E0,-1.211702544E-2,8.215609938E-2,-6.218297780E-2
4.722775057E0,-3.994623839E-4,8.428656310E-2,-5.898727849E-2
4.725242661E0,6.657706108E-4,8.322133124E-2,-5.153064802E-2
4.727710317E0,1.731003635E-3,8.428656310E-2,-4.620448127E-2
4.730176359E0,7.057168987E-3,7.896039635E-2,-4.194355011E-2
4.732642401E0,1.344856713E-2,6.724283099E-2,-3.661738336E-2
4.735108442E0,1.877473295E-2,6.298190355E-2,-2.809552103E-2
4.737574484E0,2.303566411E-2,5.872096866E-2,-1.957365684E-2
4.740040526E0,3.049229458E-2,5.232957378E-2,-1.744319126E-2
4.742506567E0,3.581846133E-2,5.659050494E-2,-9.986559860E-3
4.744972609E0,4.114462435E-2,5.765573680E-2,-3.595161485E-3
4.747438651E0,4.434032366E-2,6.085143611E-2,6.657706108E-4
4.749904692E0,4.753602296E-2,5.552527308E-2,4.926702939E-3
4.752370734E0,4.753602296E-2,5.232957378E-2,4.926702939E-3
4.754836776E0,4.753602296E-2,5.019910634E-2,3.861469682E-3
4.757302817E0,4.434032366E-2,4.913387448E-2,8.122402243E-3
4.759768859E0,4.434032366E-2,4.593817517E-2,9.187635034E-3
4.762234901E0,4.327509180E-2,4.487293959E-2,7.057168987E-3
4.764700942E0,3.794892505E-2,3.954677656E-2,5.991935730E-3
4.767166984E0,3.581846133E-2,3.209014609E-2,4.926702939E-3
4.769633026E0,2.942706272E-2,2.676397935E-2,3.861469682E-3
4.772099067E0,2.623136342E-2,2.463351376E-2,6.657706108E-4
4.774565109E0,2.410089783E-2,1.717688330E-2,-3.595161485E-3
4.777031151E0,1.877473295E-2,8.655018173E-3,-5.725627299E-3
4.779497192E0,1.238333434E-2,2.263620263E-3,-7.856093347E-3
4.781963234E0,5.991935730E-3,-5.193010904E-3,-8.921326138E-3
4.784429276E0,4.926702939E-3,-1.371487509E-2,-1.424749196E-2
4.786895317E0,5.991935730E-3,-1.797580719E-2,-1.424749196E-2
4.789361359E0,5.991935730E-3,-1.691057347E-2,-1.424749196E-2
4.791827401E0,5.991935730E-3,-1.691057347E-2,-1.424749196E-2
4.794293442E0,6.657706108E-4,-2.117150649E-2,-1.957365684E-2
4.796759484E0,-3.994623839E-4,-1.371487509E-2,-1.957365684E-2
4.799225526E0,6.657706108E-4,-8.388710208E-3,-2.276935615E-2
4.801691567E0,6.657706108E-4,-1.997311832E-3,-2.489982173E-2
4.804157609E0,1.731003635E-3,1.331541280E-4,-2.596505545E-2
4.806603807E0,1.731003635E-3,5.459319334E-3,-2.383458801E-2
4.809099745E0,6.657706108E-4,9.720250964E-3,-2.170412242E-2
4.811567192E0,-3.994623839E-4,1.824211515E-2,-2.596505545E-2
4.814034640E0,-3.994623839E-4,2.782921307E-2,-2.916075476E-2
4.816502088E0,6.657706108E-4,3.635107726E-2,-2.916075476E-2
4.818969536E0,-3.994623839E-4,4.593817517E-2,-3.235645220E-2
4.821436984E0,6.657706108E-4,5.872096866E-2,-3.235645220E-2
4.823904432E0,-3.595161485E-3,6.404713541E-2,-3.448691964E-2
4.826371880E0,-5.725627299E-3,7.043853402E-2,-3.661738336E-2
4.828837922E0,-3.595161485E-3,7.896039635E-2,-3.874785081E-2
4.831303963E0,-2.529928461E-3,9.493889660E-2,-3.981308267E-2
4.833770005E0,8.122402243E-3,1.109173894E-1,-3.768261895E-2
4.836236047E0,1.131810062E-2,1.258306503E-1,-3.661738336E-2
4.838702088E0,1.344856713E-2,1.343525201E-1,-3.661738336E-2
4.841168130E0,1.664426550E-2,1.386134475E-1,-3.555215150E-2
4.843634172E0,1.451379992E-2,1.322220564E-1,-3.768261895E-2
4.846100213E0,1.131810062E-2,1.322220564E-1,-3.661738336E-2
4.848565890E0,1.238333434E-2,1.332872808E-1,-3.342168778E-2
4.851033234E0,9.187635034E-3,1.332872808E-1,-3.129122034E-2
4.853500578E0,4.926702939E-3,1.364829838E-1,-2.916075476E-2
4.855967922E0,1.731003635E-3,1.311568171E-1,-2.276935615E-2
4.858435265E0,1.731003635E-3,1.290263534E-1,-2.383458801E-2
4.860902557E0,-5.725627299E-3,1.268958896E-1,-2.170412242E-2
4.863369901E0,-2.529928461E-3,1.258306503E-1,-2.063889056E-2
4.865837245E0,6.657706108E-4,1.151783243E-1,-1.744319126E-2
4.868303286E0,5.991935730E-3,1.023955271E-1,-1.424749196E-2
4.870769328E0,7.057168987E-3,1.023955271E-1,-1.105179265E-2
4.873235370E0,8.122402243E-3,9.280842543E-2,-9.986559860E-3
4.875701411E0,5.991935730E-3,8.428656310E-2,-9.986559860E-3
4.878167453E0,3.861469682E-3,7.789516449E-2,-7.856093347E-3
4.880633495E0,-1.464695437E-3,7.150376588E-2,-4.660394508E-3
4.883099536E0,-6.790860556E-3,6.298190355E-2,-4.660394508E-3
4.885565578E0,-5.725627299E-3,5.232957378E-2,-2.529928461E-3
4.888014484E0,-4.660394508E-3,3.954677656E-2,-1.464695437E-3
4.890481307E0,6.657706108E-4,2.356828004E-2,-6.790860556E-3
4.892948182E0,8.122402243E-3,1.398118306E-2,-5.725627299E-3
4.895415005E0,9.187635034E-3,3.328853287E-3,-6.790860556E-3
4.897881828E0,1.344856713E-2,3.328853287E-3,-4.660394508E-3
4.900348703E0,1.664426550E-2,1.078548469E-2,-4.660394508E-3
4.902815526E0,1.770949923E-2,1.291595027E-2,-5.725627299E-3
4.905282349E0,1.451379992E-2,1.291595027E-2,-8.921326138E-3
4.907748390E0,1.557903271E-2,1.930734888E-2,-8.921326138E-3
4.910214432E0,1.557903271E-2,2.250304818E-2,-9.986559860E-3
4.912680474E0,1.238333434E-2,2.889444493E-2,-1.211702544E-2
4.915146515E0,1.025286783E-2,3.848154470E-2,-1.211702544E-2
4.917612557E0,6.657706108E-4,5.872096866E-2,-1.531272475E-2
4.920078599E0,-1.464695437E-3,6.404713541E-2,-1.957365684E-2
4.922544640E0,3.861469682E-3,5.872096866E-2,-2.170412242E-2
4.925010682E0,3.861469682E-3,6.830807030E-2,-2.276935615E-2
4.927471047E0,-2.529928461E-3,8.322133124E-2,-2.383458801E-2
4.929937713E0,-3.595161485E-3,8.854749799E-2,-2.809552103E-2
4.932404380E0,-3.595161485E-3,9.706936032E-2,-3.129122034E-2
4.934871047E0,2.796236658E-3,1.173087880E-1,-2.916075476E-2
4.937337713E0,6.657706108E-4,1.386134475E-1,-2.916075476E-2
